time,seconds_elapsed,z,y,x
1729696528869000700,0.030000732421875,9.786377906799316,0.46797069907188416,-0.4221385419368744
1729696528878768600,0.0397685546875,9.78584098815918,0.48397842049598694,-0.41651052236557007
1729696528888536800,0.049536865234375,9.786600112915039,0.47768715023994446,-0.4057815968990326
1729696528898304800,0.0593046875,9.785958290100098,0.4835628867149353,-0.41420549154281616
1729696528908073000,0.069072998046875,9.786018371582031,0.4850660562515259,-0.4110318124294281
1729696528917841000,0.0788408203125,9.785717964172363,0.4915885031223297,-0.4104481637477875
1729696528927609000,0.088609130859375,9.785720825195312,0.4951353967189789,-0.4060937464237213
1729696528937377300,0.098377197265625,9.785612106323242,0.49877461791038513,-0.4042523503303528
1729696528947145200,0.108145263671875,9.785387992858887,0.5003600716590881,-0.40768522024154663
1729696528956913400,0.117913330078125,9.78528881072998,0.49960172176361084,-0.41098421812057495
1729696528966681300,0.127681396484375,9.785419464111328,0.49877870082855225,-0.40886035561561584
1729696528976449500,0.137449462890625,9.785309791564941,0.5026606917381287,-0.40674686431884766
1729696528986217500,0.147217529296875,9.785381317138672,0.5023332238197327,-0.40541285276412964
1729696528995985700,0.156985595703125,9.78530216217041,0.5011593699455261,-0.4087795615196228
1729696529005753600,0.166753662109375,9.784948348999023,0.5041817426681519,-0.41347986459732056
1729696529015521800,0.176521728515625,9.78503131866455,0.5014342665672302,-0.4148680567741394
1729696529025289700,0.186289794921875,9.78515911102295,0.5009106993675232,-0.4124654233455658
1729696529035058000,0.196057861328125,9.78535270690918,0.5000998377799988,-0.4088447391986847
1729696529044826000,0.205826171875,9.785452842712402,0.5009270906448364,-0.4054352045059204
1729696529054594000,0.215593994140625,9.785367012023926,0.501410186290741,-0.4069015681743622
1729696529064362200,0.2253623046875,9.785306930541992,0.5015358924865723,-0.40819236636161804
1729696529074130200,0.235130126953125,9.785390853881836,0.5001005530357361,-0.40793323516845703
1729696529083898400,0.2448984375,9.785479545593262,0.49999305605888367,-0.4059172570705414
1729696529093666300,0.254666259765625,9.785561561584473,0.49997591972351074,-0.4040067791938782
1729696529103434500,0.2644345703125,9.785455703735352,0.5005933046340942,-0.4057539999485016
1729696529113202400,0.274202392578125,9.785440444946289,0.5002566576004028,-0.40654489398002625
1729696529122970600,0.283970703125,9.785417556762695,0.5006087422370911,-0.4066612422466278
1729696529132738800,0.29373876953125,9.785476684570312,0.49977174401283264,-0.4062815010547638
1729696529142506800,0.3035068359375,9.785518646240234,0.4995979964733124,-0.4054683744907379
1729696529152275000,0.31327490234375,9.785568237304688,0.4997706711292267,-0.40407732129096985
1729696529162043000,0.32304296875,9.785584449768066,0.4999704658985138,-0.4034368395805359
1729696529171811000,0.33281103515625,9.785515785217285,0.5009852647781372,-0.40383002161979675
1729696529181579000,0.3425791015625,9.78544807434082,0.5014922618865967,-0.40485644340515137
1729696529191347200,0.35234716796875,9.785441398620605,0.5017107129096985,-0.4047645926475525
1729696529201115100,0.362115234375,9.785456657409668,0.5015567541122437,-0.4045933187007904
1729696529210883300,0.37188330078125,9.785467147827148,0.5015324950218201,-0.4043475091457367
1729696529220651300,0.3816513671875,9.785476684570312,0.500918447971344,-0.40485653281211853
1729696529230419500,0.39141943359375,9.785520553588867,0.5009898543357849,-0.40371501445770264
1729696529240187400,0.4011875,9.785548210144043,0.5009446144104004,-0.4030950367450714
1729696529249955600,0.41095556640625,9.785593032836914,0.500109076499939,-0.40305060148239136
1729696529259723800,0.420723876953125,9.785585403442383,0.4997718930244446,-0.4036368131637573
1729696529269491700,0.43049169921875,9.78559398651123,0.49957171082496643,-0.40368205308914185
1729696529279260000,0.440260009765625,9.785595893859863,0.49919769167900085,-0.4041132628917694
1729696529289027800,0.45002783203125,9.785585403442383,0.49985551834106445,-0.4035501480102539
1729696529298796000,0.459796142578125,9.785563468933105,0.5001040697097778,-0.4037682116031647
1729696529308564000,0.46956396484375,9.785501480102539,0.5009782910346985,-0.4041880965232849
1729696529318332200,0.479332275390625,9.78549861907959,0.500922679901123,-0.40431976318359375
1729696529328100000,0.48910009765625,9.785480499267578,0.5010422468185425,-0.40460073947906494
1729696529337868300,0.498868408203125,9.785548210144043,0.500359833240509,-0.40380576252937317
1729696529347636500,0.508636474609375,9.785575866699219,0.500465452671051,-0.4030316174030304
1729696529357404400,0.518404296875,9.785561561584473,0.5006705522537231,-0.4031059443950653
1729696529367172600,0.528172607421875,9.785538673400879,0.5005010366439819,-0.40387871861457825
1729696529376940500,0.5379404296875,9.785529136657715,0.5002548098564148,-0.40440142154693604
1729696529386708700,0.547708740234375,9.785533905029297,0.49989014863967896,-0.4047442078590393
1729696529396476700,0.5574765625,9.78551959991455,0.5004234313964844,-0.40443819761276245
1729696529406244900,0.567244873046875,9.785562515258789,0.5000827312469482,-0.4038182497024536
1729696529416012800,0.5770126953125,9.785571098327637,0.5001926422119141,-0.4034760594367981
1729696529425781000,0.586781005859375,9.785534858703613,0.500627338886261,-0.4038172960281372
1729696529435549200,0.596549072265625,9.785511016845703,0.5009258389472961,-0.40403297543525696
1729696529445317000,0.606317138671875,9.785521507263184,0.5010325312614441,-0.4036197066307068
1729696529455085300,0.616085205078125,9.78555679321289,0.5010148882865906,-0.402792751789093
1729696529464853200,0.625853271484375,9.785554885864258,0.5011051893234253,-0.4027356803417206
1729696529474621400,0.635621337890625,9.785527229309082,0.5013593435287476,-0.40309903025627136
1729696529484389400,0.645389404296875,9.785507202148438,0.5017645955085754,-0.4030837416648865
1729696529494157600,0.655157470703125,9.785486221313477,0.5019101500511169,-0.4033951759338379
1729696529503925800,0.66492578125,9.785505294799805,0.5016737580299377,-0.4032144248485565
1729696529513693700,0.674693603515625,9.7855224609375,0.5018081665039062,-0.40264102816581726
1729696529523462000,0.6844619140625,9.785553932189941,0.501958429813385,-0.40169161558151245
1729696529533229800,0.694229736328125,9.785531997680664,0.5022640228271484,-0.40183812379837036
1729696529542998000,0.703998046875,9.78549861907959,0.5025774240493774,-0.40226009488105774
1729696529552766000,0.713765869140625,9.78549861907959,0.5023307800292969,-0.40258994698524475
1729696529562534100,0.7235341796875,9.785502433776855,0.5020937919616699,-0.4027709364891052
1729696529572302000,0.733302001953125,9.78551959991455,0.5017862915992737,-0.4027460813522339
1729696529582070300,0.7430703125,9.785569190979004,0.5009825229644775,-0.40254923701286316
1729696529591838500,0.75283837890625,9.785582542419434,0.5007202625274658,-0.40256503224372864
1729696529601606400,0.7626064453125,9.785578727722168,0.5005916953086853,-0.40280941128730774
1729696529611374600,0.77237451171875,9.785563468933105,0.5007122755050659,-0.4030193090438843
1729696529621142500,0.782142578125,9.785543441772461,0.5007131695747375,-0.40350010991096497
1729696529630910700,0.79191064453125,9.78555965423584,0.5006197690963745,-0.4032385051250458
1729696529640678700,0.8016787109375,9.785582542419434,0.5002353191375732,-0.40314650535583496
1729696529650446800,0.81144677734375,9.785551071166992,0.5012012124061584,-0.4027162194252014
1729696529660214800,0.82121484375,9.785564422607422,0.5014828443527222,-0.40204185247421265
1729696529669983000,0.83098291015625,9.785534858703613,0.5021251440048218,-0.40195977687835693
1729696529679751200,0.840751220703125,9.785540580749512,0.5021639466285706,-0.40176311135292053
1729696529689519000,0.85051904296875,9.785510063171387,0.5026227235794067,-0.4019293189048767
1729696529699287300,0.860287353515625,9.785510063171387,0.5028136968612671,-0.4016874432563782
1729696529709055200,0.87005517578125,9.785531997680664,0.5028773546218872,-0.40108397603034973
1729696529718823400,0.879823486328125,9.785542488098145,0.5030159950256348,-0.4006468653678894
1729696529728591400,0.88959130859375,9.785518646240234,0.5034554600715637,-0.40069520473480225
1729696529738359600,0.899359619140625,9.78548526763916,0.5035832524299622,-0.4013391137123108
1729696529748127500,0.90912744140625,9.785502433776855,0.5034392476081848,-0.4010888934135437
1729696529757895700,0.918895751953125,9.78551959991455,0.5035574436187744,-0.4005259871482849
1729696529767663900,0.928663818359375,9.785553932189941,0.5033093690872192,-0.39999470114707947
1729696529777431800,0.938431884765625,9.785539627075195,0.5033870339393616,-0.40027546882629395
1729696529787200000,0.948199951171875,9.785513877868652,0.5033747553825378,-0.40090081095695496
1729696529796968000,0.957968017578125,9.785462379455566,0.5039000511169434,-0.4014967083930969
1729696529806736100,0.967736083984375,9.785470962524414,0.5032781958580017,-0.402062326669693
1729696529816504000,0.977504150390625,9.78548812866211,0.5031931400299072,-0.40174514055252075
1729696529826272300,0.987272216796875,9.785508155822754,0.5027255415916443,-0.40184444189071655
1729696529836040400,0.99704052734375,9.785545349121094,0.5022785663604736,-0.40150463581085205
1729696529845808400,1.006808349609375,9.785517692565918,0.5023950338363647,-0.4020165801048279
1729696529855576600,1.01657666015625,9.785490036010742,0.5028392672538757,-0.40214693546295166
1729696529865344500,1.026344482421875,9.785454750061035,0.5032981634140015,-0.40243080258369446
1729696529875112700,1.03611279296875,9.785475730895996,0.5033424496650696,-0.40187695622444153
1729696529884880600,1.045880615234375,9.785504341125488,0.5031425356864929,-0.4014195203781128
1729696529894648800,1.05564892578125,9.785486221313477,0.5036366581916809,-0.40124577283859253
1729696529904416800,1.065416748046875,9.78545093536377,0.5041588544845581,-0.4014456868171692
1729696529914185000,1.07518505859375,9.785405158996582,0.5047774910926819,-0.40178751945495605
1729696529923953200,1.084953125,9.785341262817383,0.5060292482376099,-0.4017631411552429
1729696529933721000,1.09472119140625,9.785303115844727,0.5064837336540222,-0.40213459730148315
1729696529943489300,1.1044892578125,9.785325050354004,0.5068318247795105,-0.4011461138725281
1729696529953257200,1.11425732421875,9.785382270812988,0.5059393644332886,-0.400880366563797
1729696529963025400,1.124025390625,9.785379409790039,0.5055733323097229,-0.401428759098053
1729696529972793300,1.13379345703125,9.785394668579102,0.504885196685791,-0.4018903374671936
1729696529982561500,1.1435615234375,9.785440444946289,0.50472491979599,-0.4009767472743988
1729696529992329700,1.153329833984375,9.785497665405273,0.5044682025909424,-0.39992210268974304
1729696530002097700,1.16309765625,9.785534858703613,0.5046206116676331,-0.3987955152988434
1729696530011865900,1.172865966796875,9.7855863571167,0.5043691396713257,-0.3978711664676666
1729696530021633800,1.1826337890625,9.785543441772461,0.504764974117279,-0.39842426776885986
1729696530031402000,1.192402099609375,9.785370826721191,0.505733847618103,-0.4014328718185425
1729696530041170200,1.202170166015625,9.785270690917969,0.505420446395874,-0.40424370765686035
1729696530050938000,1.211938232421875,9.78538703918457,0.5040464997291565,-0.403143048286438
1729696530060706300,1.221706298828125,9.785470962524414,0.5039398670196533,-0.4012362062931061
1729696530070474200,1.23147412109375,9.785513877868652,0.5049766302108765,-0.3988763988018036
1729696530080242400,1.241242431640625,9.785563468933105,0.5051206350326538,-0.39748844504356384
1729696530090010400,1.25101025390625,9.785582542419434,0.5042321085929871,-0.3981224596500397
1729696530099778600,1.260778564453125,9.785393714904785,0.5048556923866272,-0.40195170044898987
1729696530109546800,1.270546630859375,9.785188674926758,0.5054119229316711,-0.4062415063381195
1729696530119314700,1.280314697265625,9.785346984863281,0.5039623379707336,-0.40423107147216797
1729696530129083000,1.290082763671875,9.785602569580078,0.5026858448982239,-0.399593323469162
1729696530138850800,1.299850830078125,9.785675048828125,0.5035125017166138,-0.3967718482017517
1729696530148619000,1.309618896484375,9.785547256469727,0.5044511556625366,-0.39870738983154297
1729696530158387200,1.31938720703125,9.785405158996582,0.5041011571884155,-0.4026433229446411
1729696530168155100,1.329155029296875,9.785289764404297,0.5039919018745422,-0.4055744409561157
1729696530177923300,1.33892333984375,9.785297393798828,0.5038940906524658,-0.4055023789405823
1729696530187691300,1.348691162109375,9.785436630249023,0.5040003657341003,-0.4019831418991089
1729696530197459500,1.35845947265625,9.785652160644531,0.5032178163528442,-0.39772263169288635
1729696530207227400,1.368227294921875,9.785685539245605,0.502871036529541,-0.3973269760608673
1729696530216995600,1.37799560546875,9.785431861877441,0.5047021508216858,-0.40121975541114807
1729696530226763800,1.387763671875,9.785232543945312,0.5054322481155396,-0.40513765811920166
1729696530236531700,1.39753173828125,9.785356521606445,0.5040748715400696,-0.4038146436214447
1729696530246300000,1.4072998046875,9.785578727722168,0.5031267404556274,-0.3996274769306183
1729696530256068000,1.417068115234375,9.785628318786621,0.5041148066520691,-0.3971405625343323
1729696530265836000,1.4268359375,9.78557300567627,0.5049238801002502,-0.3974963128566742
1729696530275604200,1.436604248046875,9.785459518432617,0.5050894618034363,-0.4000730514526367
1729696530285372200,1.4463720703125,9.785324096679688,0.5053662061691284,-0.40301764011383057
1729696530295140400,1.456140380859375,9.7853364944458,0.504591703414917,-0.40370258688926697
1729696530304908300,1.465908203125,9.785441398620605,0.5041440725326538,-0.40168794989585876
1729696530314676500,1.475676513671875,9.785593032836914,0.5029276013374329,-0.39952000975608826
1729696530324444700,1.485444580078125,9.785613059997559,0.5034025311470032,-0.39842143654823303
1729696530334212600,1.495212646484375,9.785438537597656,0.5051206946372986,-0.4005538821220398
1729696530343980800,1.504980712890625,9.785346984863281,0.5051447749137878,-0.40274545550346375
1729696530353749000,1.5147490234375,9.78536319732666,0.5042635798454285,-0.40343961119651794
1729696530363517000,1.524516845703125,9.785408020019531,0.5041069984436035,-0.4025409519672394
1729696530373285000,1.53428515625,9.785460472106934,0.5043032169342041,-0.40104833245277405
1729696530383053000,1.544052978515625,9.785523414611816,0.5043463706970215,-0.3994351327419281
1729696530392821200,1.5538212890625,9.785528182983398,0.5045279264450073,-0.3991098999977112
1729696530402589200,1.563589111328125,9.785438537597656,0.5052396059036255,-0.4003734290599823
1729696530412357400,1.573357421875,9.785306930541992,0.5054128766059875,-0.40336689352989197
1729696530422125600,1.58312548828125,9.785277366638184,0.5058567523956299,-0.40354016423225403
1729696530431893500,1.5928935546875,9.785446166992188,0.5044358968734741,-0.40122848749160767
1729696530441661700,1.60266162109375,9.78557300567627,0.5043157339096069,-0.3982601463794708
1729696530451429600,1.6124296875,9.785575866699219,0.5046582221984863,-0.3977539837360382
1729696530461197800,1.62219775390625,9.785574913024902,0.5045198798179626,-0.39794087409973145
1729696530470966000,1.631966064453125,9.785531044006348,0.5048146843910217,-0.3986707329750061
1729696530480734000,1.64173388671875,9.78545093536377,0.5056753754615784,-0.3995186686515808
1729696530490502100,1.651502197265625,9.785428047180176,0.5062711238861084,-0.39932194352149963
1729696530500270300,1.661270263671875,9.78551959991455,0.5057620406150818,-0.3977220356464386
1729696530510038300,1.671038330078125,9.785545349121094,0.5055497884750366,-0.3973740339279175
1729696530519806500,1.680806396484375,9.78550910949707,0.5058300495147705,-0.3979153335094452
1729696530529574400,1.690574462890625,9.785466194152832,0.5055143237113953,-0.3993477523326874
1729696530539342600,1.700342529296875,9.785467147827148,0.5051074028015137,-0.3998508155345917
1729696530549110800,1.71011083984375,9.785518646240234,0.5040557384490967,-0.3999069333076477
1729696530558878700,1.719878662109375,9.785490036010742,0.5048417448997498,-0.39962443709373474
1729696530568647000,1.72964697265625,9.785530090332031,0.5045139193534851,-0.39906710386276245
1729696530578414800,1.739414794921875,9.785575866699219,0.5040386319160461,-0.3985462784767151
1729696530588183000,1.74918310546875,9.785612106323242,0.503756046295166,-0.39801472425460815
1729696530597951200,1.758951171875,9.785553932189941,0.5038579702377319,-0.39931729435920715
1729696530607719200,1.76871923828125,9.78553581237793,0.5036416053771973,-0.4000213146209717
1729696530617487400,1.7784873046875,9.785592079162598,0.5027346611022949,-0.3998185992240906
1729696530627255600,1.788255615234375,9.785629272460938,0.5027004480361938,-0.39892786741256714
1729696530637023500,1.7980234375,9.785648345947266,0.5026906132698059,-0.3984690010547638
1729696530646791700,1.807791748046875,9.785645484924316,0.5029494762420654,-0.39820948243141174
1729696530656559600,1.8175595703125,9.785611152648926,0.5026383996009827,-0.3994329571723938
1729696530666327800,1.827327880859375,9.785627365112305,0.5020802021026611,-0.39974460005760193
1729696530676096000,1.837095947265625,9.785614967346191,0.5027135610580444,-0.39925000071525574
1729696530685864000,1.846864013671875,9.78564167022705,0.5026859045028687,-0.39862048625946045
1729696530695632100,1.856632080078125,9.785723686218262,0.5020323395729065,-0.3974405527114868
1729696530705400000,1.866400146484375,9.785700798034668,0.502042293548584,-0.3980148732662201
1729696530715168300,1.876168212890625,9.785599708557129,0.5024638772010803,-0.39994117617607117
1729696530724936400,1.8859365234375,9.785538673400879,0.5027577877044678,-0.40105149149894714
1729696530734704400,1.895704345703125,9.785602569580078,0.5022464990615845,-0.4001534581184387
1729696530744472600,1.90547265625,9.785676956176758,0.5020255446434021,-0.39859670400619507
1729696530754240500,1.915240478515625,9.785680770874023,0.5027208924293518,-0.39764654636383057
1729696530764008700,1.9250087890625,9.785656929016113,0.5029504895210266,-0.39793503284454346
1729696530773777000,1.93477685546875,9.785629272460938,0.5024605989456177,-0.399234801530838
1729696530783544800,1.944544921875,9.785612106323242,0.502119779586792,-0.400076687335968
1729696530793313000,1.95431298828125,9.785615921020508,0.5018845200538635,-0.4002675414085388
1729696530803081200,1.964081298828125,9.785683631896973,0.5013242959976196,-0.39933738112449646
1729696530812849200,1.97384912109375,9.785728454589844,0.5013708472251892,-0.3981635868549347
1729696530822617300,1.983617431640625,9.785674095153809,0.5022369623184204,-0.39838725328445435
1729696530832385500,1.993385498046875,9.785605430603027,0.5027568340301514,-0.39945757389068604
1729696530842153500,2.003153564453125,9.785568237304688,0.502987265586853,-0.4000508487224579
1729696530851921700,2.012921630859375,9.78558349609375,0.5028848052024841,-0.39984145760536194
1729696530861689900,2.02268994140625,9.785635948181152,0.5025244951248169,-0.3990056812763214
1729696530871457800,2.032457763671875,9.78565502166748,0.5027600526809692,-0.39824533462524414
1729696530881226000,2.04222607421875,9.785643577575684,0.5029165744781494,-0.39831557869911194
1729696530890994000,2.051993896484375,9.785534858703613,0.5035881996154785,-0.4001106917858124
1729696530900762000,2.06176220703125,9.785449028015137,0.5042546987533569,-0.4013528823852539
1729696530910530300,2.0715302734375,9.785472869873047,0.5038837790489197,-0.4012506306171417
1729696530920298200,2.08129833984375,9.785548210144043,0.5031718611717224,-0.40030476450920105
1729696530930066400,2.09106640625,9.785578727722168,0.5031210780143738,-0.3996209502220154
1729696530939834400,2.10083447265625,9.785602569580078,0.5032692551612854,-0.39888063073158264
1729696530949602600,2.1106025390625,9.785563468933105,0.5034762024879456,-0.39956212043762207
1729696530959370800,2.120370849609375,9.785531044006348,0.503606379032135,-0.4001769423484802
1729696530969138700,2.130138671875,9.785574913024902,0.5032007694244385,-0.39964544773101807
1729696530978907000,2.139906982421875,9.785605430603027,0.5033413171768188,-0.3986974358558655
1729696530988675000,2.149675048828125,9.785629272460938,0.5034376382827759,-0.3979972302913666
1729696530998443000,2.159443115234375,9.785659790039062,0.5034753084182739,-0.39718911051750183
1729696531008211200,2.169211181640625,9.78566837310791,0.5029613971710205,-0.3976217210292816
1729696531017979400,2.1789794921875,9.785612106323242,0.503364622592926,-0.398512601852417
1729696531027747300,2.188747314453125,9.785621643066406,0.5027445554733276,-0.3990471363067627
1729696531037515500,2.198515625,9.785649299621582,0.5022088885307312,-0.3990436792373657
1729696531047283700,2.20828369140625,9.785703659057617,0.5019164085388184,-0.39810091257095337
1729696531057051600,2.2180517578125,9.785741806030273,0.502027153968811,-0.3969927430152893
1729696531066819800,2.22781982421875,9.785802841186523,0.5014867186546326,-0.396175742149353
1729696531076588000,2.237588134765625,9.785781860351562,0.5014792680740356,-0.3967098593711853
1729696531086356000,2.24735595703125,9.785687446594238,0.5022855401039124,-0.39799198508262634
1729696531096124200,2.257124267578125,9.785658836364746,0.5023183226585388,-0.39865514636039734
1729696531105892400,2.266892333984375,9.785662651062012,0.5024658441543579,-0.3983954191207886
1729696531115660300,2.276660400390625,9.785737037658691,0.5020793080329895,-0.39707010984420776
1729696531125428500,2.286428466796875,9.785774230957031,0.5021328926086426,-0.39605966210365295
1729696531135196400,2.296196533203125,9.785752296447754,0.5023054480552673,-0.3964135944843292
1729696531144964600,2.305964599609375,9.785699844360352,0.5024935007095337,-0.39745286107063293
1729696531154732800,2.31573291015625,9.785637855529785,0.5028882026672363,-0.39846664667129517
1729696531164500700,2.325500732421875,9.785613059997559,0.5031458735466003,-0.39876604080200195
1729696531174269000,2.33526904296875,9.785659790039062,0.5029969811439514,-0.3977772295475006
1729696531184037000,2.345037109375,9.785682678222656,0.5031888484954834,-0.3969980776309967
1729696531193805000,2.35480517578125,9.785638809204102,0.5037588477134705,-0.3973739445209503
1729696531203573200,2.3645732421875,9.785572052001953,0.5041374564170837,-0.398510217666626
1729696531213341400,2.374341552734375,9.785505294799805,0.5047789812088013,-0.39935240149497986
1729696531223109400,2.384109375,9.785511016845703,0.5049436688423157,-0.3989875316619873
1729696531232877600,2.393877685546875,9.785553932189941,0.5045868754386902,-0.3983752429485321
1729696531242645800,2.403645751953125,9.785552978515625,0.5050889849662781,-0.3977902829647064
1729696531252413700,2.41341357421875,9.785531044006348,0.5050746202468872,-0.3983379304409027
1729696531262182000,2.423181884765625,9.785552978515625,0.5044793486595154,-0.39854440093040466
1729696531271950000,2.4329501953125,9.78550910949707,0.5048350691795349,-0.39915797114372253
1729696531281718000,2.442718017578125,9.785512924194336,0.5043161511421204,-0.399730384349823
1729696531291486200,2.452486328125,9.78554630279541,0.5040760040283203,-0.3992210924625397
1729696531301254400,2.46225439453125,9.78557014465332,0.5036606788635254,-0.3991532027721405
1729696531311022300,2.472022216796875,9.785534858703613,0.5039892196655273,-0.3996095061302185
1729696531320790500,2.48179052734375,9.785542488098145,0.5038174986839294,-0.39963799715042114
1729696531330558700,2.491558837890625,9.785492897033691,0.5044445991516113,-0.4000512659549713
1729696531340326700,2.50132666015625,9.785514831542969,0.504032552242279,-0.4000382423400879
1729696531350094800,2.5110947265625,9.785530090332031,0.5040286779403687,-0.3996707499027252
1729696531359863000,2.520863037109375,9.785547256469727,0.5040786862373352,-0.39921385049819946
1729696531369631000,2.530630859375,9.785557746887207,0.5040538311004639,-0.39895907044410706
1729696531379399200,2.540399169921875,9.785573959350586,0.5042157173156738,-0.3983692228794098
1729696531389167400,2.55016748046875,9.78554916381836,0.5047377943992615,-0.39831459522247314
1729696531398935300,2.559935302734375,9.785539627075195,0.5050774216651917,-0.39810797572135925
1729696531408703500,2.569703369140625,9.78555679321289,0.5050351619720459,-0.3977562487125397
1729696531418471700,2.5794716796875,9.785490036010742,0.5056523084640503,-0.39860132336616516
1729696531428239600,2.589239501953125,9.785491943359375,0.5059860348701477,-0.39812612533569336
1729696531438007800,2.5990078125,9.785602569580078,0.5051883459091187,-0.3964042663574219
1729696531447776000,2.60877587890625,9.78563117980957,0.505215048789978,-0.39568471908569336
1729696531457544000,2.6185439453125,9.785574913024902,0.5058015584945679,-0.3963432312011719
1729696531467312000,2.62831201171875,9.78549575805664,0.5067757368087769,-0.3970400094985962
1729696531477080300,2.638080322265625,9.785515785217285,0.5061942338943481,-0.39730748534202576
1729696531486848300,2.64784814453125,9.785515785217285,0.5057842135429382,-0.39780566096305847
1729696531496616400,2.657616455078125,9.785463333129883,0.5069615840911865,-0.3975815773010254
1729696531506384600,2.667384521484375,9.785476684570312,0.5074984431266785,-0.39659830927848816
1729696531516152600,2.677152587890625,9.785557746887207,0.506976306438446,-0.3952316641807556
1729696531525920800,2.686920654296875,9.785507202148438,0.5073708295822144,-0.39600542187690735
1729696531535689000,2.69668896484375,9.785344123840332,0.5089633464813232,-0.39798280596733093
1729696531545457000,2.706456787109375,9.785337448120117,0.5085265636444092,-0.39870718121528625
1729696531555225000,2.71622509765625,9.785470008850098,0.5072799324989319,-0.3970351815223694
1729696531564993300,2.7259931640625,9.785482406616211,0.5076271891593933,-0.3962835669517517
1729696531574761200,2.73576123046875,9.785436630249023,0.5080151557922363,-0.39690640568733215
1729696531584529400,2.745529296875,9.785409927368164,0.5078625679016113,-0.39776846766471863
1729696531594297600,2.755297607421875,9.785443305969238,0.5071019530296326,-0.397899329662323
1729696531604065500,2.7650654296875,9.785406112670898,0.5073446035385132,-0.3985179662704468
1729696531613833700,2.774833740234375,9.785367012023926,0.5080941319465637,-0.3985235393047333
1729696531623602000,2.784601806640625,9.785446166992188,0.5072667002677917,-0.3976212739944458
1729696531633369900,2.794369873046875,9.785537719726562,0.5061242580413818,-0.3968353569507599
1729696531643138000,2.804137939453125,9.785468101501465,0.5067527890205383,-0.39775553345680237
1729696531652906200,2.81390625,9.785323143005371,0.5078637003898621,-0.39987555146217346
1729696531662674400,2.82367431640625,9.78538990020752,0.5065677762031555,-0.3998919129371643
1729696531672442400,2.8334423828125,9.785472869873047,0.5061119794845581,-0.39842987060546875
1729696531682210600,2.84321044921875,9.785505294799805,0.5063527226448059,-0.397345632314682
1729696531691978800,2.852978759765625,9.785454750061035,0.5066174268722534,-0.39824622869491577
1729696531701746700,2.86274658203125,9.785453796386719,0.5064138174057007,-0.3985229432582855
1729696531711515000,2.872514892578125,9.785510063171387,0.5056321620941162,-0.39812326431274414
1729696531721283000,2.882282958984375,9.785480499267578,0.5056406855583191,-0.39887651801109314
1729696531731051000,2.892051025390625,9.78543472290039,0.5063132643699646,-0.39912161231040955
1729696531740819200,2.901819091796875,9.785513877868652,0.5050498247146606,-0.39879778027534485
1729696531750587400,2.91158740234375,9.785536766052246,0.5044754147529602,-0.3989434838294983
1729696531760355300,2.921355224609375,9.785490036010742,0.5046257376670837,-0.3999054431915283
1729696531770123500,2.93112353515625,9.785460472106934,0.5047959685325623,-0.40041330456733704
1729696531779891700,2.9408916015625,9.785520553588867,0.504177987575531,-0.39970529079437256
1729696531789659600,2.95065966796875,9.785555839538574,0.5040706396102905,-0.3989841043949127
1729696531799427800,2.960427734375,9.785523414611816,0.5043312311172485,-0.3994477391242981
1729696531809196000,2.970196044921875,9.785489082336426,0.5045723915100098,-0.3999846577644348
1729696531818964200,2.979964111328125,9.78554916381836,0.5038594603538513,-0.39940762519836426
1729696531828732200,2.989732177734375,9.785616874694824,0.5027225017547607,-0.39918220043182373
1729696531838500400,2.999500244140625,9.785561561584473,0.5031741261482239,-0.39997202157974243
1729696531848268500,3.0092685546875,9.785560607910156,0.5030891299247742,-0.40010106563568115
1729696531858036500,3.019036376953125,9.785630226135254,0.5023142099380493,-0.39938539266586304
1729696531867804700,3.0288046875,9.785637855529785,0.5021731853485107,-0.3993697762489319
1729696531877572900,3.03857275390625,9.785595893859863,0.5024184584617615,-0.4000968635082245
1729696531887340800,3.0483408203125,9.785632133483887,0.5016998648643494,-0.40008893609046936
1729696531897109000,3.05810888671875,9.785715103149414,0.5005394816398621,-0.39954516291618347
1729696531906877200,3.067877197265625,9.785715103149414,0.5004543662071228,-0.3996419906616211
1729696531916645400,3.077645263671875,9.785656929016113,0.5011298060417175,-0.40024101734161377
1729696531926413300,3.087413330078125,9.78561782836914,0.5020082592964172,-0.4000680446624756
1729696531936181500,3.097181396484375,9.78569221496582,0.5016886591911316,-0.3986358046531677
1729696531945949700,3.10694970703125,9.78569507598877,0.5021809935569763,-0.39797744154930115
1729696531955717600,3.116717529296875,9.785595893859863,0.5035313963890076,-0.39867115020751953
1729696531965485800,3.12648583984375,9.785628318786621,0.502770721912384,-0.39883658289909363
1729696531975254000,3.13625390625,9.785688400268555,0.5020391345024109,-0.39831581711769104
1729696531985022000,3.14602197265625,9.785626411437988,0.5030084252357483,-0.3986152708530426
1729696531994790100,3.1557900390625,9.785567283630371,0.5040060877799988,-0.398783415555954
1729696532004558300,3.165558349609375,9.785593032836914,0.504024863243103,-0.3981453478336334
1729696532014326500,3.175326416015625,9.785623550415039,0.5039013028144836,-0.39753788709640503
1729696532024094500,3.185094482421875,9.785595893859863,0.5039265751838684,-0.3981873095035553
1729696532033862700,3.194862548828125,9.785524368286133,0.5043069124221802,-0.3994932174682617
1729696532043630800,3.204630859375,9.785539627075195,0.5036647319793701,-0.3998853862285614
1729696532053398800,3.214398681640625,9.785605430603027,0.5028893351554871,-0.3992706537246704
1729696532063167000,3.2241669921875,9.785561561584473,0.503767192363739,-0.3992255628108978
1729696532072935200,3.23393505859375,9.78551197052002,0.5045704245567322,-0.39944174885749817
1729696532082703400,3.243703369140625,9.785564422607422,0.5035231113433838,-0.39946162700653076
1729696532092471300,3.25347119140625,9.78559684753418,0.5026984214782715,-0.39972585439682007
1729696532102239500,3.263239501953125,9.785552024841309,0.5032021999359131,-0.4001748859882355
1729696532112007700,3.273007568359375,9.785564422607422,0.5029536485671997,-0.4002074897289276
1729696532121775600,3.282775634765625,9.785651206970215,0.5022512674331665,-0.39896371960639954
1729696532131543800,3.292543701171875,9.785677909851074,0.5020113587379456,-0.3986089527606964
1729696532141312000,3.30231201171875,9.785604476928711,0.5026350617408752,-0.3995978534221649
1729696532151080000,3.312079833984375,9.785552978515625,0.5029165148735046,-0.4005156457424164
1729696532160848100,3.32184814453125,9.785608291625977,0.5021025538444519,-0.4001901149749756
1729696532170616300,3.3316162109375,9.785643577575684,0.501724898815155,-0.3997863531112671
1729696532180384500,3.341384521484375,9.785616874694824,0.5019140839576721,-0.4002145826816559
1729696532190152400,3.35115234375,9.785604476928711,0.5021068453788757,-0.4002913534641266
1729696532199920600,3.360920654296875,9.785646438598633,0.5016191005706787,-0.39985528588294983
1729696532209688800,3.370688720703125,9.785571098327637,0.5025536417961121,-0.4005223214626312
1729696532219456800,3.380456787109375,9.785538673400879,0.5028820633888245,-0.4008936583995819
1729696532229225000,3.390224853515625,9.785566329956055,0.502376139163971,-0.4008771479129791
1729696532238993200,3.3999931640625,9.785636901855469,0.5014892816543579,-0.4002513587474823
1729696532248761300,3.40976123046875,9.785640716552734,0.5013661980628967,-0.4003223180770874
1729696532258529300,3.419529296875,9.785604476928711,0.5017580389976501,-0.400709331035614
1729696532268297500,3.42929736328125,9.785604476928711,0.5018245577812195,-0.4006151556968689
1729696532278065700,3.439065673828125,9.785623550415039,0.5015599727630615,-0.40050479769706726
1729696532287833600,3.44883349609375,9.785609245300293,0.5018309950828552,-0.4004921615123749
1729696532297601800,3.458601806640625,9.785593032836914,0.5019797086715698,-0.4006982445716858
1729696532307370000,3.468369873046875,9.785611152648926,0.501788318157196,-0.4005117118358612
1729696532317138200,3.47813818359375,9.785653114318848,0.5010339617729187,-0.4004271626472473
1729696532326906000,3.487906005859375,9.785603523254395,0.501765251159668,-0.4007312059402466
1729696532336674300,3.49767431640625,9.78558349609375,0.5020081400871277,-0.4008968770503998
1729696532346442500,3.5074423828125,9.785595893859863,0.5018025040626526,-0.40085989236831665
1729696532356210700,3.517210693359375,9.785588264465332,0.5020298957824707,-0.4007611870765686
1729696532365978600,3.526978515625,9.785602569580078,0.5018244981765747,-0.40067771077156067
1729696532375746800,3.536746826171875,9.785606384277344,0.5015987157821655,-0.4008801281452179
1729696532385515000,3.546514892578125,9.785628318786621,0.5014426708221436,-0.40050584077835083
1729696532395283200,3.556283203125,9.785650253295898,0.5010282397270203,-0.4005086123943329
1729696532405051100,3.566051025390625,9.785621643066406,0.5016900300979614,-0.4003656208515167
1729696532414819300,3.5758193359375,9.785604476928711,0.5020489692687988,-0.40035536885261536
1729696532424587500,3.58558740234375,9.785622596740723,0.5017495155334473,-0.4002785384654999
1729696532434355500,3.59535546875,9.785663604736328,0.5014862418174744,-0.39960813522338867
1729696532444123600,3.60512353515625,9.785625457763672,0.5020642876625061,-0.39980003237724304
1729696532453891800,3.614891845703125,9.785662651062012,0.5015696287155151,-0.3995068073272705
1729696532463660000,3.624659912109375,9.785675048828125,0.5013647079467773,-0.3994891345500946
1729696532473428000,3.634427978515625,9.785661697387695,0.5017549395561218,-0.3993440270423889
1729696532483196200,3.644196044921875,9.785645484924316,0.501711905002594,-0.39975571632385254
1729696532492964400,3.65396435546875,9.78566837310791,0.5011680126190186,-0.39987918734550476
1729696532502732300,3.663732177734375,9.785677909851074,0.5012370944023132,-0.39956608414649963
1729696532512500500,3.67350048828125,9.785682678222656,0.5008594989776611,-0.3999357521533966
1729696532522268700,3.6832685546875,9.785672187805176,0.500918984413147,-0.4000985324382782
1729696532532036900,3.693036865234375,9.785694122314453,0.5008071064949036,-0.3997068405151367
1729696532541804800,3.7028046875,9.785722732543945,0.5007863640785217,-0.3990168571472168
1729696532551573000,3.712572998046875,9.785706520080566,0.5011071562767029,-0.39902010560035706
1729696532561341200,3.722341064453125,9.7857084274292,0.5008189082145691,-0.3993370234966278
1729696532571109400,3.732109375,9.785734176635742,0.5004959106445312,-0.39911165833473206
1729696532580877300,3.741877197265625,9.785751342773438,0.5003821849822998,-0.398841917514801
1729696532590645500,3.7516455078125,9.785726547241211,0.5006393194198608,-0.3991399109363556
1729696532600413700,3.76141357421875,9.785724639892578,0.5005198121070862,-0.3993152678012848
1729696532610182000,3.771181884765625,9.785741806030273,0.5006256103515625,-0.39878544211387634
1729696532619949800,3.78094970703125,9.785738945007324,0.5008306503295898,-0.3985896110534668
1729696532629718000,3.790718017578125,9.785731315612793,0.5009097456932068,-0.39865198731422424
1729696532639486200,3.800486328125,9.785731315612793,0.5008460879325867,-0.39873892068862915
1729696532649254400,3.81025439453125,9.785737037658691,0.5005136728286743,-0.3990514576435089
1729696532659022300,3.820022216796875,9.785719871520996,0.5005876421928406,-0.39934247732162476
1729696532668790500,3.82979052734375,9.785724639892578,0.5007042288780212,-0.39909985661506653
1729696532678558700,3.839558837890625,9.7857084274292,0.5010176301002502,-0.3990948796272278
1729696532688326700,3.84932666015625,9.785698890686035,0.5012032985687256,-0.3991057574748993
1729696532698094800,3.8590947265625,9.785703659057617,0.500913679599762,-0.39931634068489075
1729696532707863000,3.868863037109375,9.785694122314453,0.5006816983222961,-0.39985930919647217
1729696532717631200,3.87863134765625,9.785676956176758,0.5008174777030945,-0.40012285113334656
1729696532727399200,3.888399169921875,9.785694122314453,0.5005179643630981,-0.400073766708374
1729696532737167400,3.89816748046875,9.785701751708984,0.5005618929862976,-0.3998366892337799
1729696532746935600,3.907935546875,9.78569221496582,0.5007047653198242,-0.39990296959877014
1729696532756703700,3.917703857421875,9.785690307617188,0.5006493926048279,-0.4000103175640106
1729696532766471700,3.9274716796875,9.78569507598877,0.5004521012306213,-0.40015867352485657
1729696532776239900,3.937239990234375,9.785676002502441,0.5008162260055542,-0.40015801787376404
1729696532786008000,3.947008056640625,9.785664558410645,0.5009920001029968,-0.4002130329608917
1729696532795776300,3.9567763671875,9.785658836364746,0.5008894801139832,-0.40047863125801086
1729696532805544400,3.96654443359375,9.785669326782227,0.5008805394172668,-0.4002346098423004
1729696532815312400,3.9763125,9.78567886352539,0.5010271668434143,-0.3997994661331177
1729696532825080600,3.98608056640625,9.785661697387695,0.5011853575706482,-0.4000481963157654
1729696532834848800,3.995848876953125,9.785649299621582,0.5009632706642151,-0.40060955286026
1729696532844617000,4.005616943359375,9.785661697387695,0.5009575486183167,-0.40032050013542175
1729696532854385000,4.015385009765625,9.78565788269043,0.5009856224060059,-0.40038880705833435
1729696532864153000,4.025153076171875,9.785651206970215,0.5009812712669373,-0.4005248248577118
1729696532873921300,4.03492138671875,9.78565502166748,0.5010018348693848,-0.4004242718219757
1729696532883689200,4.044689208984375,9.785653114318848,0.5010753870010376,-0.4003795385360718
1729696532893457400,4.05445751953125,9.785628318786621,0.5013766884803772,-0.40061357617378235
1729696532903225600,4.0642255859375,9.78560733795166,0.5013184547424316,-0.4011959731578827
1729696532912993800,4.073993896484375,9.78561019897461,0.501291036605835,-0.4011644721031189
1729696532922761700,4.08376171875,9.785609245300293,0.5013022422790527,-0.4011892080307007
1729696532932530000,4.093530029296875,9.785616874694824,0.5012441873550415,-0.40104785561561584
1729696532942298000,4.103298095703125,9.785591125488281,0.5014219284057617,-0.4014589190483093
1729696532952066300,4.11306640625,9.785560607910156,0.5016245245933533,-0.4019448161125183
1729696532961834500,4.12283447265625,9.78554916381836,0.5015943646430969,-0.4022739827632904
1729696532971602400,4.1326025390625,9.785558700561523,0.5016290545463562,-0.4020155072212219
1729696532981370600,4.14237060546875,9.785553932189941,0.5017107129096985,-0.4019881784915924
1729696532991138800,4.152138916015625,9.785573959350586,0.501510500907898,-0.40177208185195923
1729696533000907000,4.161906982421875,9.785597801208496,0.5016275644302368,-0.4010303020477295
1729696533010675000,4.171675048828125,9.785576820373535,0.501976490020752,-0.40112999081611633
1729696533020443100,4.181443115234375,9.785584449768066,0.5018560886383057,-0.40106916427612305
1729696533030211300,4.19121142578125,9.785587310791016,0.501763105392456,-0.4011341333389282
1729696533039979500,4.2009794921875,9.7855863571167,0.5018004179000854,-0.4010968506336212
1729696533049747500,4.21074755859375,9.785593032836914,0.5020371079444885,-0.40063273906707764
1729696533059515600,4.220515625,9.785603523254395,0.5020405650138855,-0.4003879427909851
1729696533069283800,4.230283935546875,9.785589218139648,0.5022938847541809,-0.4004160165786743
1729696533079052000,4.240052001953125,9.785615921020508,0.501745343208313,-0.4004443287849426
1729696533088820000,4.249820068359375,9.785623550415039,0.5017017722129822,-0.40033361315727234
1729696533098588200,4.259588134765625,9.785578727722168,0.5022333860397339,-0.4007616937160492
1729696533108356400,4.2693564453125,9.78555965423584,0.5025792121887207,-0.4007759392261505
1729696533118124500,4.27912451171875,9.785581588745117,0.5020993947982788,-0.40082666277885437
1729696533127892700,4.288892822265625,9.785629272460938,0.5016478300094604,-0.40027084946632385
1729696533137660700,4.29866064453125,9.785635948181152,0.5017096400260925,-0.39999228715896606
1729696533147428900,4.308428955078125,9.785621643066406,0.501774251461029,-0.4002878963947296
1729696533157197000,4.318197021484375,9.785606384277344,0.501721978187561,-0.40070608258247375
1729696533166965000,4.327965087890625,9.78561782836914,0.5016500353813171,-0.40052348375320435
1729696533176733200,4.337733154296875,9.785604476928711,0.5020506978034973,-0.4003267288208008
1729696533186501400,4.34750146484375,9.785638809204102,0.5016332268714905,-0.4000374674797058
1729696533196269600,4.35726953125,9.785643577575684,0.5015887022018433,-0.3999461829662323
1729696533206037800,4.367037841796875,9.785664558410645,0.5011194944381714,-0.4000401794910431
1729696533215805700,4.3768056640625,9.785634994506836,0.5011970400810242,-0.4006500840187073
1729696533225574000,4.386573974609375,9.785630226135254,0.5012712478637695,-0.40068668127059937
1729696533235342000,4.396342041015625,9.785643577575684,0.5013824105262756,-0.4002261161804199
1729696533245110300,4.4061103515625,9.78568172454834,0.5010288953781128,-0.3997310996055603
1729696533254878500,4.41587841796875,9.78570556640625,0.5007439851760864,-0.3995172083377838
1729696533264646400,4.425646484375,9.78569507598877,0.5006826519966125,-0.39983120560646057
1729696533274414600,4.43541455078125,9.785674095153809,0.5008136630058289,-0.4001987874507904
1729696533284182800,4.445182861328125,9.785664558410645,0.5010133385658264,-0.40017178654670715
1729696533293951000,4.454950927734375,9.78565788269043,0.5011498332023621,-0.40017256140708923
1729696533303719000,4.464718994140625,9.785669326782227,0.5010883808135986,-0.39997991919517517
1729696533313487000,4.474487060546875,9.785659790039062,0.5011715292930603,-0.40011003613471985
1729696533323255300,4.48425537109375,9.785672187805176,0.5009338855743408,-0.40010109543800354
1729696533333023500,4.4940234375,9.785700798034668,0.5006394386291504,-0.3997684419155121
1729696533342791700,4.503791748046875,9.785711288452148,0.5005559921264648,-0.3996087312698364
1729696533352559600,4.5135595703125,9.785750389099121,0.5002298355102539,-0.39907482266426086
1729696533362327800,4.523327880859375,9.785727500915527,0.5005978345870972,-0.39916425943374634
1729696533372096000,4.533095947265625,9.785719871520996,0.5006088614463806,-0.39932534098625183
1729696533381864200,4.5428642578125,9.785687446594238,0.5007607340812683,-0.39994779229164124
1729696533391632100,4.552632080078125,9.785698890686035,0.5005260109901428,-0.3999580144882202
1729696533401400300,4.562400390625,9.785717964172363,0.5000637173652649,-0.40005335211753845
1729696533411168500,4.57216845703125,9.785706520080566,0.5003519058227539,-0.3999738097190857
1729696533420936700,4.581936767578125,9.785696983337402,0.5002880096435547,-0.40031301975250244
1729696533430705000,4.591704833984375,9.785686492919922,0.5004225373268127,-0.40037843585014343
1729696533440472800,4.601472900390625,9.785686492919922,0.5003064274787903,-0.40053772926330566
1729696533450241000,4.611240966796875,9.785662651062012,0.5005176067352295,-0.4008578956127167
1729696533460009200,4.62100927734375,9.785652160644531,0.5004420876502991,-0.4011842608451843
1729696533469777400,4.63077734375,9.785661697387695,0.5002878904342651,-0.40114909410476685
1729696533479545600,4.640545654296875,9.78564739227295,0.500469982624054,-0.40129411220550537
1729696533489313500,4.6503134765625,9.785650253295898,0.5006527900695801,-0.40099039673805237
1729696533499081700,4.660081787109375,9.785652160644531,0.500757098197937,-0.4007970094680786
1729696533508850000,4.669849853515625,9.785653114318848,0.5006428956985474,-0.4009307622909546
1729696533518618000,4.6796181640625,9.785673141479492,0.5005135536193848,-0.4005957245826721
1729696533528386000,4.689385986328125,9.785653114318848,0.5006399750709534,-0.40093886852264404
1729696533538154200,4.699154296875,9.785676956176758,0.5006236433982849,-0.4003566801548004
1729696533547922400,4.70892236328125,9.785652160644531,0.5011354088783264,-0.4003223776817322
1729696533557690600,4.718690673828125,9.785683631896973,0.5007973313331604,-0.3999702036380768
1729696533567458800,4.728458740234375,9.785676956176758,0.5009889006614685,-0.39990484714508057
1729696533577226800,4.738226806640625,9.785637855529785,0.5013110041618347,-0.4004565179347992
1729696533586995000,4.747994873046875,9.785691261291504,0.5007264018058777,-0.3998713195323944
1729696533596763100,4.75776318359375,9.785630226135254,0.5013761520385742,-0.4005706310272217
1729696533606531300,4.76753125,9.785675048828125,0.5006656646728516,-0.4003525674343109
1729696533616299500,4.777299560546875,9.78564739227295,0.5010703206062317,-0.40050822496414185
1729696533626067500,4.7870673828125,9.785637855529785,0.5010175704956055,-0.40081658959388733
1729696533635835600,4.796835693359375,9.785634994506836,0.5015155673027039,-0.4002853035926819
1729696533645603800,4.806603759765625,9.78561019897461,0.5019125938415527,-0.4003712832927704
1729696533655372000,4.8163720703125,9.785605430603027,0.501771092414856,-0.40065595507621765
1729696533665140200,4.82614013671875,9.78562068939209,0.5011876225471497,-0.40103408694267273
1729696533674908200,4.835908203125,9.785645484924316,0.5008055567741394,-0.4008973240852356
1729696533684676400,4.84567626953125,9.785648345947266,0.501086413860321,-0.4004792273044586
1729696533694444500,4.855444580078125,9.785680770874023,0.5005922317504883,-0.40030616521835327
1729696533704212700,4.865212646484375,9.785658836364746,0.5009961128234863,-0.4003460705280304
1729696533713980700,4.874980712890625,9.785665512084961,0.5007734298706055,-0.40044915676116943
1729696533723748900,4.884748779296875,9.785687446594238,0.5003372430801392,-0.40045732259750366
1729696533733517000,4.89451708984375,9.785669326782227,0.5007029175758362,-0.40045759081840515
1729696533743285200,4.90428515625,9.78569507598877,0.5003394484519958,-0.4002766013145447
1729696533753053400,4.914053466796875,9.78572940826416,0.5002270936965942,-0.39956238865852356
1729696533762821600,4.923821533203125,9.785698890686035,0.500732421875,-0.39969223737716675
1729696533772589600,4.933589599609375,9.785736083984375,0.5005014538764954,-0.39908766746520996
1729696533782357800,4.943357666015625,9.785747528076172,0.5002622008323669,-0.3990894556045532
1729696533792126000,4.9531259765625,9.785733222961426,0.5006529688835144,-0.3989347517490387
1729696533801894100,4.96289404296875,9.785737991333008,0.500836193561554,-0.398599773645401
1729696533811662300,4.972662353515625,9.785761833190918,0.5005533695220947,-0.3983649015426636
1729696533821430300,4.98243017578125,9.78575325012207,0.5007667541503906,-0.3983171582221985
1729696533831198500,4.992198486328125,9.78576946258545,0.5006633400917053,-0.3980405628681183
1729696533840966700,5.001966552734375,9.785778999328613,0.5004742741584778,-0.39805012941360474
1729696533850734800,5.01173486328125,9.785744667053223,0.5007764101028442,-0.3985186815261841
1729696533860503000,5.0215029296875,9.785744667053223,0.5009808540344238,-0.3982345461845398
1729696533870271000,5.03127099609375,9.785760879516602,0.500799298286438,-0.39807748794555664
1729696533880039200,5.0410390625,9.7857666015625,0.5003258585929871,-0.3985237777233124
1729696533889807400,5.050807373046875,9.785768508911133,0.5003287196159363,-0.3984975516796112
1729696533899575600,5.060575439453125,9.785778045654297,0.5004734396934509,-0.39806947112083435
1729696533909343700,5.07034375,9.785783767700195,0.5000378489494324,-0.3984731137752533
1729696533919111700,5.080111572265625,9.78577709197998,0.49991002678871155,-0.39880403876304626
1729696533928879900,5.0898798828125,9.785783767700195,0.49977582693099976,-0.3988111913204193
1729696533938648000,5.09964794921875,9.785782814025879,0.49974751472473145,-0.3988620638847351
1729696533948416300,5.109416259765625,9.78579330444336,0.49944841861724854,-0.3989781439304352
1729696533958184400,5.119184326171875,9.785758972167969,0.5000608563423157,-0.39905261993408203
1729696533967952400,5.128952392578125,9.785733222961426,0.5000289082527161,-0.39971721172332764
1729696533977720600,5.138720458984375,9.785765647888184,0.4998722970485687,-0.3991223871707916
1729696533987488800,5.14848876953125,9.785758018493652,0.5000411868095398,-0.3991144597530365
1729696533997257000,5.158257080078125,9.785748481750488,0.5002503991127014,-0.3990892171859741
1729696534007025200,5.168025146484375,9.785743713378906,0.5001776218414307,-0.39928123354911804
1729696534016793300,5.17779345703125,9.785741806030273,0.5001020431518555,-0.3994278013706207
1729696534026561300,5.187561279296875,9.785706520080566,0.5005908608436584,-0.3996638357639313
1729696534036329500,5.19732958984375,9.785687446594238,0.5004910826683044,-0.40029096603393555
1729696534046097700,5.20709765625,9.785686492919922,0.5006516575813293,-0.4001087546348572
1729696534055865900,5.216865966796875,9.78566837310791,0.5006751418113708,-0.4005187153816223
1729696534065634000,5.226634033203125,9.78565502166748,0.5006522536277771,-0.4008708894252777
1729696534075402000,5.236402099609375,9.785635948181152,0.5007150173187256,-0.4012646973133087
1729696534085170200,5.246170166015625,9.78561019897461,0.5009773373603821,-0.40156230330467224
1729696534094938400,5.2559384765625,9.785633087158203,0.5007740259170532,-0.40124842524528503
1729696534104706600,5.26570654296875,9.785650253295898,0.5007271766662598,-0.400888055562973
1729696534114474800,5.275474853515625,9.785676956176758,0.5004134178161621,-0.4006223678588867
1729696534124243000,5.285242919921875,9.785700798034668,0.5000289082527161,-0.4005171060562134
1729696534134011000,5.295010986328125,9.785730361938477,0.49946141242980957,-0.40051352977752686
1729696534143779000,5.304779052734375,9.78569221496582,0.499737948179245,-0.40107735991477966
1729696534153547300,5.31454736328125,9.785650253295898,0.500238835811615,-0.40150535106658936
1729696534163315500,5.3243154296875,9.785676002502441,0.5000482797622681,-0.4011304974555969
1729696534173083600,5.334083740234375,9.78567886352539,0.4997691512107849,-0.40139177441596985
1729696534182851600,5.3438515625,9.78564453125,0.49996417760849,-0.40198472142219543
1729696534192619800,5.353619873046875,9.785614967346191,0.4999166429042816,-0.40274807810783386
1729696534202388000,5.363387939453125,9.785639762878418,0.4995105564594269,-0.40265002846717834
1729696534212156200,5.37315625,9.785659790039062,0.4993332326412201,-0.4023791253566742
1729696534221924400,5.38292431640625,9.785628318786621,0.4996875524520874,-0.4027184247970581
1729696534231692300,5.3926923828125,9.78561782836914,0.4997941851615906,-0.4028213322162628
1729696534241460500,5.40246044921875,9.78564453125,0.4995204508304596,-0.4025484621524811
1729696534251228700,5.412228759765625,9.785628318786621,0.49997830390930176,-0.40233996510505676
1729696534260996900,5.421996826171875,9.785602569580078,0.5001084208488464,-0.40279895067214966
1729696534270765000,5.43176513671875,9.785590171813965,0.5004849433898926,-0.40263402462005615
1729696534280533200,5.441533203125,9.785588264465332,0.5007492303848267,-0.4023734927177429
1729696534290301400,5.451301513671875,9.785552024841309,0.5010286569595337,-0.40292420983314514
1729696534300069400,5.4610693359375,9.785531044006348,0.5013768672943115,-0.402971476316452
1729696534309837600,5.470837646484375,9.785538673400879,0.5016229748725891,-0.4024644196033478
1729696534319605800,5.480605712890625,9.78554630279541,0.5017238855361938,-0.4021628499031067
1729696534329374000,5.4903740234375,9.78553581237793,0.5018013119697571,-0.4023544192314148
1729696534339142100,5.50014208984375,9.785537719726562,0.5020071268081665,-0.4020305275917053
1729696534348910300,5.509910400390625,9.785541534423828,0.5019682049751282,-0.40199223160743713
1729696534358678300,5.51967822265625,9.785486221313477,0.5025435090065002,-0.40261754393577576
1729696534368446500,5.529446533203125,9.78547191619873,0.502871036529541,-0.40252941846847534
1729696534378214700,5.539214599609375,9.785479545593262,0.5023847222328186,-0.402950644493103
1729696534387982800,5.54898291015625,9.785499572753906,0.5021650791168213,-0.4027631878852844
1729696534397751000,5.5587509765625,9.785455703735352,0.5021587610244751,-0.4038494825363159
1729696534407519000,5.56851904296875,9.785490989685059,0.5017659664154053,-0.4034784734249115
1729696534417287200,5.578287109375,9.785527229309082,0.5013771653175354,-0.40307241678237915
1729696534427055400,5.588055419921875,9.785499572753906,0.5016402006149292,-0.4034283757209778
1729696534436823600,5.597823486328125,9.785518646240234,0.5016219615936279,-0.4029798209667206
1729696534446591700,5.607591796875,9.785557746887207,0.5011831521987915,-0.40256428718566895
1729696534456360000,5.61735986328125,9.785512924194336,0.501871645450592,-0.40279969573020935
1729696534466128000,5.6271279296875,9.785475730895996,0.5020740032196045,-0.4034558832645416
1729696534475896000,5.63689599609375,9.785428047180176,0.5028133988380432,-0.40370360016822815
1729696534485664300,5.646664306640625,9.785466194152832,0.5021719932556152,-0.4035545587539673
1729696534495432400,5.656432373046875,9.785428047180176,0.5024897456169128,-0.4040783643722534
1729696534505200600,5.66620068359375,9.78539752960205,0.5029636025428772,-0.40423691272735596
1729696534514968800,5.67596875,9.785420417785645,0.5027720928192139,-0.4039371907711029
1729696534524736800,5.68573681640625,9.785441398620605,0.5027292966842651,-0.40347012877464294
1729696534534505000,5.6955048828125,9.78543758392334,0.5028045177459717,-0.40346452593803406
1729696534544273200,5.705273193359375,9.785446166992188,0.5023577809333801,-0.40379637479782104
1729696534554041300,5.715041259765625,9.785468101501465,0.5020794868469238,-0.4036366641521454
1729696534563809500,5.7248095703125,9.785440444946289,0.5026254057884216,-0.4036329686641693
1729696534573577700,5.73457763671875,9.785414695739746,0.5033155083656311,-0.40339934825897217
1729696534583345700,5.744345703125,9.785422325134277,0.5036371350288391,-0.4027699828147888
1729696534593113900,5.75411376953125,9.785452842712402,0.5036647915840149,-0.4020395874977112
1729696534602882000,5.763882080078125,9.785441398620605,0.5037633776664734,-0.4021886885166168
1729696534612650200,5.773650146484375,9.785445213317871,0.5037497282028198,-0.4020845592021942
1729696534622418400,5.78341845703125,9.785451889038086,0.5037081241607666,-0.4019915461540222
1729696534632186600,5.7931865234375,9.785457611083984,0.5038419365882874,-0.4016764461994171
1729696534641954800,5.802954833984375,9.785481452941895,0.503966748714447,-0.40094706416130066
1729696534651722800,5.81272265625,9.785481452941895,0.5042803883552551,-0.40055370330810547
1729696534661491000,5.822490966796875,9.785481452941895,0.5042558312416077,-0.40057745575904846
1729696534671259100,5.832259033203125,9.785466194152832,0.5041906833648682,-0.4010390043258667
1729696534681027300,5.84202734375,9.7854585647583,0.5042281150817871,-0.4011635184288025
1729696534690795500,5.85179541015625,9.785470008850098,0.5042608976364136,-0.4008650779724121
1729696534700563700,5.861563720703125,9.785490989685059,0.5041326284408569,-0.4005012810230255
1729696534710332000,5.871331787109375,9.78548526763916,0.5047076344490051,-0.39992275834083557
1729696534720099800,5.881099853515625,9.785460472106934,0.5045483112335205,-0.4007018506526947
1729696534729868000,5.890867919921875,9.785500526428223,0.5039732456207275,-0.4004703760147095
1729696534739636200,5.90063623046875,9.785491943359375,0.5040949583053589,-0.40054216980934143
1729696534749404400,5.910404296875,9.785459518432617,0.5040538907051086,-0.4013530910015106
1729696534759172600,5.920172607421875,9.785493850708008,0.5035467743873596,-0.40117600560188293
1729696534768940800,5.92994091796875,9.785544395446777,0.5031059384346008,-0.40049657225608826
1729696534778708700,5.939708740234375,9.785550117492676,0.5032386183738708,-0.40018269419670105
1729696534788477000,5.949476806640625,9.785531997680664,0.503520131111145,-0.4002898335456848
1729696534798245000,5.9592451171875,9.785536766052246,0.5032689571380615,-0.4004923701286316
1729696534808013300,5.969013427734375,9.78549575805664,0.5038111209869385,-0.40079784393310547
1729696534817781500,5.978781494140625,9.78554630279541,0.503291130065918,-0.400226891040802
1729696534827549700,5.9885498046875,9.785579681396484,0.5032760500907898,-0.39941394329071045
1729696534837318000,5.99831787109375,9.785614967346191,0.5030038952827454,-0.3989139199256897
1729696534847085800,6.0080859375,9.785587310791016,0.5032784342765808,-0.39921805262565613
1729696534856854000,6.01785400390625,9.785544395446777,0.5037367343902588,-0.39969852566719055
1729696534866622200,6.027622314453125,9.785500526428223,0.5041158199310303,-0.4002954661846161
1729696534876390400,6.037390380859375,9.785492897033691,0.5044479370117188,-0.40005290508270264
1729696534886158600,6.04715869140625,9.785531997680664,0.504407525062561,-0.3991539478302002
1729696534895926800,6.0569267578125,9.785520553588867,0.5047904849052429,-0.39895468950271606
1729696534905695000,6.066695068359375,9.78547477722168,0.5054847598075867,-0.39917629957199097
1729696534915463000,6.076462890625,9.785442352294922,0.5057963132858276,-0.3995816707611084
1729696534925231000,6.086231201171875,9.785439491271973,0.5057458877563477,-0.3997323513031006
1729696534934999300,6.095999267578125,9.78543472290039,0.506095290184021,-0.39940345287323
1729696534944767500,6.105767578125,9.785466194152832,0.5057814121246338,-0.39902380108833313
1729696534954535700,6.11553564453125,9.785446166992188,0.5057740807533264,-0.39951807260513306
1729696534964304000,6.125303955078125,9.785443305969238,0.505326509475708,-0.4001787304878235
1729696534974072000,6.135072021484375,9.78542709350586,0.5055729746818542,-0.4002528190612793
1729696534983840000,6.144840087890625,9.785406112670898,0.5058616995811462,-0.40040868520736694
1729696534993608200,6.154608154296875,9.785482406616211,0.5052561163902283,-0.3992846608161926
1729696535003376400,6.16437646484375,9.78549575805664,0.5055896639823914,-0.39853635430336
1729696535013144600,6.17414453125,9.78546142578125,0.5058466196060181,-0.3990515172481537
1729696535022912800,6.183912841796875,9.785449028015137,0.506016731262207,-0.3991498053073883
1729696535032681000,6.193680908203125,9.78549861907959,0.5047255158424377,-0.3995605707168579
1729696535042449000,6.203448974609375,9.785531044006348,0.5046416521072388,-0.39890187978744507
1729696535052217000,6.213217041015625,9.785540580749512,0.5040230751037598,-0.3994342088699341
1729696535061985300,6.2229853515625,9.785523414611816,0.5042763948440552,-0.399517685174942
1729696535071753500,6.23275341796875,9.785534858703613,0.5038962364196777,-0.3997379541397095
1729696535081521700,6.242521728515625,9.785530090332031,0.5042530298233032,-0.39941123127937317
1729696535091289900,6.252289794921875,9.785500526428223,0.5047498345375061,-0.3994823098182678
1729696535101058000,6.26205810546875,9.78548526763916,0.505047619342804,-0.399486243724823
1729696535110826000,6.271825927734375,9.785598754882812,0.5034568905830383,-0.3986876308917999
1729696535120594200,6.28159423828125,9.785587310791016,0.504033625125885,-0.39825525879859924
1729696535130362400,6.2913623046875,9.78554630279541,0.5040684342384338,-0.3992331326007843
1729696535140130600,6.301130615234375,9.785561561584473,0.5034663677215576,-0.3996165096759796
1729696535149898800,6.310898681640625,9.785605430603027,0.5028523802757263,-0.3993043899536133
1729696535159667000,6.3206669921875,9.785616874694824,0.5028830170631409,-0.3990001082420349
1729696535169435100,6.33043505859375,9.785585403442383,0.5028523802757263,-0.3997876048088074
1729696535179203300,6.340203369140625,9.78559398651123,0.5029193162918091,-0.39949753880500793
1729696535188971300,6.34997119140625,9.785674095153809,0.5019875764846802,-0.39872464537620544
1729696535198739500,6.359739501953125,9.785645484924316,0.5022451877593994,-0.39909201860427856
1729696535208507600,6.369507568359375,9.78558349609375,0.5028030276298523,-0.39989492297172546
1729696535218275800,6.37927587890625,9.785606384277344,0.5025215148925781,-0.39970675110816956
1729696535228044000,6.3890439453125,9.785651206970215,0.5020508170127869,-0.39919325709342957
1729696535237812200,6.398812255859375,9.785655975341797,0.5022361278533936,-0.39885085821151733
1729696535247580400,6.408580322265625,9.785639762878418,0.5022021532058716,-0.3992769420146942
1729696535257348600,6.4183486328125,9.78565502166748,0.5019052028656006,-0.399298757314682
1729696535267116500,6.428116455078125,9.785661697387695,0.5016756057739258,-0.3993930220603943
1729696535276884700,6.437884765625,9.78566837310791,0.5017493963241577,-0.3991509974002838
1729696535286653000,6.44765283203125,9.785663604736328,0.5023764371871948,-0.3984912633895874
1729696535296421000,6.457421142578125,9.785686492919922,0.5022138953208923,-0.39813995361328125
1729696535306189300,6.467189208984375,9.785737991333008,0.5016372799873352,-0.3976040184497833
1729696535315957500,6.47695751953125,9.785710334777832,0.501825213432312,-0.3980271518230438
1729696535325725700,6.4867255859375,9.785677909851074,0.5020010471343994,-0.39858895540237427
1729696535335493600,6.49649365234375,9.785727500915527,0.5016418695449829,-0.39784151315689087
1729696535345261800,6.50626171875,9.785767555236816,0.5014123320579529,-0.39713793992996216
1729696535355030000,6.516030029296875,9.785762786865234,0.5014857053756714,-0.3971616327762604
1729696535364798200,6.525798095703125,9.785670280456543,0.5023340582847595,-0.3983631134033203
1729696535374566400,6.53556640625,9.785611152648926,0.5029319524765015,-0.3990885615348816
1729696535384334600,6.54533447265625,9.78561782836914,0.5024662017822266,-0.39949342608451843
1729696535394102800,6.555102783203125,9.785609245300293,0.502077043056488,-0.4001825451850891
1729696535403871000,6.56487109375,9.785584449768066,0.5023100972175598,-0.4004940092563629
1729696535413639000,6.574638916015625,9.78559398651123,0.502565860748291,-0.3999505341053009
1729696535423407000,6.584406982421875,9.78560733795166,0.5027685761451721,-0.3993971347808838
1729696535433175300,6.59417529296875,9.785578727722168,0.5037133097648621,-0.39888450503349304
1729696535442943500,6.603943603515625,9.785557746887207,0.5042726993560791,-0.3986840844154358
1729696535452711700,6.613711669921875,9.785478591918945,0.504890501499176,-0.399848610162735
1729696535462480000,6.62347998046875,9.785468101501465,0.5044652223587036,-0.40064889192581177
1729696535472248000,6.633248046875,9.785520553588867,0.5039896965026855,-0.3999604284763336
1729696535482016300,6.643016357421875,9.785566329956055,0.5045119524002075,-0.39816394448280334
1729696535491784400,6.652784423828125,9.78557300567627,0.5048989057540894,-0.39752882719039917
1729696535501552400,6.662552490234375,9.78553295135498,0.505340576171875,-0.3979565501213074
1729696535511320600,6.672320556640625,9.785491943359375,0.5053630471229553,-0.3989172875881195
1729696535521088800,6.6820888671875,9.785473823547363,0.5052005052566528,-0.3995579481124878
1729696535530857000,6.69185693359375,9.78548812866211,0.5053321123123169,-0.3990824818611145
1729696535540625200,6.701625244140625,9.785577774047852,0.5048771500587463,-0.39741435647010803
1729696535550393300,6.711393310546875,9.785680770874023,0.5037861466407776,-0.3962709605693817
1729696535560161500,6.72116162109375,9.785602569580078,0.5042592883110046,-0.39757388830184937
1729696535569929700,6.7309296875,9.785504341125488,0.5050684809684753,-0.3990062475204468
1729696535579697700,6.74069775390625,9.785467147827148,0.5050633549690247,-0.3999268710613251
1729696535589465900,6.7504658203125,9.785520553588867,0.5045435428619385,-0.39926016330718994
1729696535599234000,6.760234130859375,9.78557014465332,0.5041665434837341,-0.39852097630500793
1729696535609002200,6.770002197265625,9.785598754882812,0.5040681958198547,-0.39792799949645996
1729696535618770400,6.7797705078125,9.78555679321289,0.5043187141418457,-0.3986591398715973
1729696535628538600,6.78953857421875,9.785536766052246,0.5041647553443909,-0.3993460237979889
1729696535638306800,6.799306884765625,9.785527229309082,0.5041191577911377,-0.39961740374565125
1729696535648075000,6.809074951171875,9.785560607910156,0.5044988393783569,-0.398334264755249
1729696535657843200,6.81884326171875,9.785650253295898,0.5041085481643677,-0.3966321051120758
1729696535667611100,6.828611083984375,9.785698890686035,0.5037402510643005,-0.3958840072154999
1729696535677379300,6.83837939453125,9.785612106323242,0.5044289827346802,-0.39714643359184265
1729696535687147500,6.8481474609375,9.785550117492676,0.5046905875205994,-0.3983533978462219
1729696535696915700,6.857915771484375,9.78557014465332,0.503847062587738,-0.39891594648361206
1729696535706684000,6.867683837890625,9.785591125488281,0.503419041633606,-0.398960143327713
1729696535716452000,6.8774521484375,9.785625457763672,0.5029865503311157,-0.3986508846282959
1729696535726220300,6.88722021484375,9.785684585571289,0.5026126503944397,-0.3976864218711853
1729696535735988500,6.896988525390625,9.785717964172363,0.5019598603248596,-0.39768362045288086
1729696535745756700,6.906756591796875,9.785675048828125,0.5021780133247375,-0.3984536826610565
1729696535755524900,6.91652490234375,9.78563117980957,0.5021934509277344,-0.39952901005744934
1729696535765292800,6.926292724609375,9.785618782043457,0.5023219585418701,-0.39964866638183594
1729696535775061000,6.93606103515625,9.785703659057617,0.501530110836029,-0.3985678553581238
1729696535784829200,6.9458291015625,9.785735130310059,0.5020032525062561,-0.3971866965293884
1729696535794597400,6.955597412109375,9.785727500915527,0.5021646618843079,-0.3971906006336212
1729696535804365600,6.965365478515625,9.785717010498047,0.501686155796051,-0.3980371952056885
1729696535814133800,6.9751337890625,9.785691261291504,0.5015313625335693,-0.3988860249519348
1729696535823902000,6.98490185546875,9.785660743713379,0.5013719797134399,-0.3998410105705261
1729696535833670100,6.994670166015625,9.78565788269043,0.5015445947647095,-0.39966675639152527
1729696535843438300,7.004438232421875,9.785734176635742,0.501287579536438,-0.3981133997440338
1729696535853206300,7.014206298828125,9.785771369934082,0.5013082027435303,-0.39719346165657043
1729696535862974500,7.023974365234375,9.785727500915527,0.5014796853065491,-0.39802247285842896
1729696535872742700,7.03374267578125,9.785588264465332,0.5026483535766602,-0.39997148513793945
1729696535882510800,7.0435107421875,9.785517692565918,0.5031742453575134,-0.4010525941848755
1729696535892279000,7.053279052734375,9.78554916381836,0.5025269389152527,-0.4011004865169525
1729696535902047200,7.063047119140625,9.785565376281738,0.503024697303772,-0.4000636041164398
1729696535911815400,7.0728154296875,9.785572052001953,0.5033540725708008,-0.39949923753738403
1729696535921583600,7.08258349609375,9.785560607910156,0.5030347108840942,-0.4002023935317993
1729696535931351800,7.092351806640625,9.785537719726562,0.5024740099906921,-0.4014494717121124
1729696535941120000,7.1021201171875,9.7855224609375,0.5020253658294678,-0.40237319469451904
1729696535950888000,7.111887939453125,9.78557300567627,0.5015223026275635,-0.4017711281776428
1729696535960656100,7.12165625,9.785615921020508,0.501375138759613,-0.4009127914905548
1729696535970424300,7.13142431640625,9.785628318786621,0.501301646232605,-0.4006977081298828
1729696535980192500,7.141192626953125,9.785623550415039,0.5012242197990417,-0.40091097354888916
1729696535989960700,7.150960693359375,9.78559398651123,0.5009183883666992,-0.40203896164894104
1729696535999729000,7.16072900390625,9.785676956176758,0.4997071623802185,-0.4015028178691864
1729696536009497000,7.1704970703125,9.78571891784668,0.4992713928222656,-0.40102359652519226
1729696536019265300,7.180265380859375,9.785754203796387,0.49937793612480164,-0.4000331461429596
1729696536029033500,7.190033447265625,9.785782814025879,0.4995448887348175,-0.3991261422634125
1729696536038801700,7.1998017578125,9.78579330444336,0.49929702281951904,-0.39919349551200867
1729696536048569600,7.209569580078125,9.7857666015625,0.49932554364204407,-0.39979425072669983
1729696536058337800,7.219337890625,9.785785675048828,0.4988785684108734,-0.3998962640762329
1729696536068106000,7.22910595703125,9.785820007324219,0.49823474884033203,-0.3998355269432068
1729696536077874200,7.238874267578125,9.785867691040039,0.49783989787101746,-0.399190217256546
1729696536087642400,7.248642333984375,9.785884857177734,0.49770060181617737,-0.39891552925109863
1729696536097410600,7.25841064453125,9.785853385925293,0.4981172978878021,-0.39918437600135803
1729696536107178800,7.2681787109375,9.785844802856445,0.49814003705978394,-0.3993721008300781
1729696536116947000,7.277947021484375,9.785820960998535,0.4985082447528839,-0.3995005488395691
1729696536126715100,7.287715087890625,9.78577995300293,0.49899113178253174,-0.39986366033554077
1729696536136483300,7.2974833984375,9.78575325012207,0.49966907501220703,-0.39969193935394287
1729696536146251500,7.30725146484375,9.785734176635742,0.5001504421234131,-0.3995286226272583
1729696536156019500,7.31701953125,9.785717964172363,0.5007301568984985,-0.3992307186126709
1729696536165787600,7.32678759765625,9.785712242126465,0.5009804964065552,-0.39905691146850586
1729696536175555800,7.336555908203125,9.785666465759277,0.5014334917068481,-0.3996131420135498
1729696536185324000,7.346323974609375,9.78563404083252,0.5013933181762695,-0.4004495441913605
1729696536195092200,7.35609228515625,9.785652160644531,0.5009548664093018,-0.40056195855140686
1729696536204860400,7.3658603515625,9.785715103149414,0.5004487633705139,-0.3996375501155853
1729696536214628600,7.375628662109375,9.78575325012207,0.5000536441802979,-0.399203896522522
1729696536224396800,7.385396728515625,9.785736083984375,0.5001880526542664,-0.39945676922798157
1729696536234165000,7.3951650390625,9.785755157470703,0.4997619092464447,-0.39950865507125854
1729696536243933200,7.40493310546875,9.785758018493652,0.49943625926971436,-0.39985930919647217
1729696536253701400,7.414701416015625,9.785749435424805,0.4994357228279114,-0.40006521344184875
1729696536263469300,7.42446923828125,9.785748481750488,0.49967527389526367,-0.39980441331863403
1729696536273237500,7.434237548828125,9.785773277282715,0.4993820786476135,-0.3995625674724579
1729696536283005700,7.444005615234375,9.78579330444336,0.49936071038246155,-0.399111270904541
1729696536292774000,7.45377392578125,9.78577709197998,0.4996300935745239,-0.39916127920150757
1729696536302542000,7.4635419921875,9.785730361938477,0.5000162124633789,-0.3997970223426819
1729696536312310300,7.473310302734375,9.785736083984375,0.4995737075805664,-0.40023013949394226
1729696536322078500,7.483078369140625,9.785764694213867,0.4991030991077423,-0.40011852979660034
1729696536331846700,7.4928466796875,9.785773277282715,0.49897298216819763,-0.4000818431377411
1729696536341614800,7.50261474609375,9.785751342773438,0.49924787878990173,-0.40026992559432983
1729696536351383000,7.512383056640625,9.78571891784668,0.4995095133781433,-0.40073779225349426
1729696536361151200,7.522151123046875,9.785683631896973,0.4997108280658722,-0.401326060295105
1729696536370919200,7.531919189453125,9.78569507598877,0.4995705485343933,-0.4012202024459839
1729696536380687400,7.541687255859375,9.785709381103516,0.4997253119945526,-0.40069183707237244
1729696536390455600,7.55145556640625,9.78573226928711,0.4996683597564697,-0.4002004563808441
1729696536400223700,7.5612236328125,9.785720825195312,0.49989596009254456,-0.400188684463501
1729696536409992000,7.570991943359375,9.78568172454834,0.500028669834137,-0.4009798765182495
1729696536419760000,7.580760009765625,9.785616874694824,0.5006918907165527,-0.4017306864261627
1729696536429528300,7.5905283203125,9.78561019897461,0.5006980895996094,-0.4018734395503998
1729696536439296500,7.600296630859375,9.785650253295898,0.5003039836883545,-0.40142980217933655
1729696536449064700,7.610064697265625,9.785637855529785,0.5009657144546509,-0.40090999007225037
1729696536458833000,7.6198330078125,9.78561019897461,0.5013359189033508,-0.40110355615615845
1729696536468601000,7.62960107421875,9.785638809204102,0.5004657506942749,-0.4014674425125122
1729696536478369300,7.639369384765625,9.78564739227295,0.4999011754989624,-0.40201038122177124
1729696536488137500,7.649137451171875,9.785599708557129,0.5002607107162476,-0.4027044177055359
1729696536497905400,7.658905517578125,9.785616874694824,0.5001751780509949,-0.4023939371109009
1729696536507673600,7.668673583984375,9.785687446594238,0.49963751435279846,-0.40132564306259155
1729696536517441800,7.67844189453125,9.78569221496582,0.4997115731239319,-0.4011053144931793
1729696536527210000,7.6882099609375,9.785652160644531,0.5002995729446411,-0.40138962864875793
1729696536536978200,7.697978271484375,9.785618782043457,0.5002567172050476,-0.4022388756275177
1729696536546746400,7.707746337890625,9.785612106323242,0.5002344846725464,-0.40240830183029175
1729696536556514600,7.7175146484375,9.785646438598633,0.500019371509552,-0.4018535017967224
1729696536566282800,7.72728271484375,9.785645484924316,0.5008243918418884,-0.4008828103542328
1729696536576051000,7.737051025390625,9.785629272460938,0.5015143156051636,-0.400426983833313
1729696536585819100,7.746819091796875,9.785603523254395,0.5017499923706055,-0.4007548391819
1729696536595587300,7.75658740234375,9.785566329956055,0.5020416378974915,-0.4012928903102875
1729696536605355500,7.76635546875,9.785552024841309,0.5021884441375732,-0.401458740234375
1729696536615123700,7.776123779296875,9.785585403442383,0.5017934441566467,-0.40113332867622375
1729696536624892000,7.785891845703125,9.785621643066406,0.5014623403549194,-0.40066438913345337
1729696536634659800,7.795659912109375,9.785602569580078,0.501705527305603,-0.40082117915153503
1729696536644428000,7.805427978515625,9.785604476928711,0.5013535022735596,-0.40122663974761963
1729696536654196200,7.8151962890625,9.78559684753418,0.5011383891105652,-0.401670902967453
1729696536663964400,7.82496435546875,9.785604476928711,0.5012333989143372,-0.40135180950164795
1729696536673732600,7.834732666015625,9.785619735717773,0.5009940266609192,-0.40129104256629944
1729696536683500800,7.844500732421875,9.785621643066406,0.5010064840316772,-0.40121787786483765
1729696536693269000,7.85426904296875,9.785613059997559,0.5014237761497498,-0.4009179174900055
1729696536703037200,7.864037109375,9.785624504089355,0.5013640522956848,-0.40073633193969727
1729696536712805400,7.873805419921875,9.785623550415039,0.5012624263763428,-0.4008767604827881
1729696536722573600,7.883573486328125,9.785594940185547,0.5013993382453918,-0.401412695646286
1729696536732341800,7.893341796875,9.78562068939209,0.5009781122207642,-0.4012953042984009
1729696536742110000,7.90310986328125,9.785645484924316,0.5007477402687073,-0.400974303483963
1729696536751878100,7.912878173828125,9.785630226135254,0.500959575176239,-0.4010859429836273
1729696536761646300,7.922646240234375,9.785589218139648,0.501324474811554,-0.4016280174255371
1729696536771414500,7.93241455078125,9.785581588745117,0.5011695027351379,-0.40202513337135315
1729696536781182700,7.9421826171875,9.785571098327637,0.5009483695030212,-0.4025350511074066
1729696536790951000,7.951950927734375,9.785591125488281,0.5008096098899841,-0.4022344946861267
1729696536800718800,7.96171875,9.785595893859863,0.5011084079742432,-0.40171775221824646
1729696536810487000,7.971487060546875,9.785648345947266,0.5010287761688232,-0.4005698263645172
1729696536820255200,7.981255126953125,9.785664558410645,0.5011440515518188,-0.4000062048435211
1729696536830023400,7.9910234375,9.785654067993164,0.5011361837387085,-0.4002821445465088
1729696536839791600,8.00079150390625,9.785612106323242,0.5012924671173096,-0.40111395716667175
1729696536849559800,8.010559814453124,9.785577774047852,0.5011529326438904,-0.402127206325531
1729696536859328000,8.020327880859375,9.785585403442383,0.5009837746620178,-0.40213388204574585
1729696536869096200,8.03009619140625,9.785622596740723,0.5008516311645508,-0.4014282524585724
1729696536878864400,8.039864501953126,9.78570556640625,0.5001455545425415,-0.40027546882629395
1729696536888632600,8.049632568359375,9.78571605682373,0.4998449385166168,-0.4003848731517792
1729696536898400800,8.05940087890625,9.785670280456543,0.49991968274116516,-0.4014001190662384
1729696536908169000,8.0691689453125,9.785685539245605,0.49932152032852173,-0.4017934799194336
1729696536917937200,8.078937255859374,9.7857084274292,0.49912571907043457,-0.40147456526756287
1729696536927705300,8.088705322265625,9.785720825195312,0.49927350878715515,-0.40095752477645874
1729696536937473500,8.0984736328125,9.78575611114502,0.49912452697753906,-0.40029436349868774
1729696536947241700,8.10824169921875,9.78574275970459,0.4991590082645416,-0.4005603492259979
1729696536957010000,8.118010009765625,9.785686492919922,0.4993738830089569,-0.40167543292045593
1729696536966777900,8.12777783203125,9.785677909851074,0.49892112612724304,-0.402474969625473
1729696536976546000,8.137546142578126,9.785719871520996,0.4984908103942871,-0.40198034048080444
1729696536986314200,8.147314208984374,9.785778045654297,0.4982890486717224,-0.40080726146698
1729696536996082400,8.15708251953125,9.78580093383789,0.4984537661075592,-0.40002137422561646
1729696537005850600,8.1668505859375,9.785759925842285,0.49902254343032837,-0.4003205895423889
1729696537015618800,8.176618896484374,9.785693168640137,0.4993024468421936,-0.40162473917007446
1729696537025387000,8.186386962890625,9.785669326782227,0.49921417236328125,-0.40231314301490784
1729696537035155200,8.1961552734375,9.785693168640137,0.49889230728149414,-0.4021477997303009
1729696537044923400,8.20592333984375,9.785725593566895,0.4989689886569977,-0.40123453736305237
1729696537054691600,8.215691650390625,9.785748481750488,0.49917128682136536,-0.400421679019928
1729696537064459800,8.225459716796875,9.785726547241211,0.49961283802986145,-0.40039733052253723
1729696537074228000,8.23522802734375,9.785725593566895,0.4996078312397003,-0.40042439103126526
1729696537083996200,8.24499609375,9.785740852355957,0.49940598011016846,-0.4003327488899231
1729696537093764400,8.254764404296875,9.785759925842285,0.499466210603714,-0.399774432182312
1729696537103532500,8.264532470703125,9.785783767700195,0.49905872344970703,-0.39969417452812195
1729696537113300700,8.27430078125,9.785744667053223,0.4996873736381531,-0.399881511926651
1729696537123069000,8.28406884765625,9.785700798034668,0.5002666711807251,-0.40023303031921387
1729696537132836900,8.2938369140625,9.78566837310791,0.5006354451179504,-0.4005488157272339
1729696537142605000,8.30360498046875,9.785658836364746,0.5007143020629883,-0.40069064497947693
1729696537152373200,8.313373291015624,9.785637855529785,0.500810980796814,-0.40108585357666016
1729696537162141400,8.323141357421875,9.78561019897461,0.5008752942085266,-0.40167009830474854
1729696537171909600,8.33290966796875,9.785558700561523,0.5015119314193726,-0.4021309018135071
1729696537181677800,8.342677734375,9.785592079162598,0.5013133883476257,-0.4015629291534424
1729696537191446000,8.352446044921875,9.785626411437988,0.50083988904953,-0.40132635831832886
1729696537201214200,8.362214111328125,9.78559684753418,0.5010528564453125,-0.4017895758152008
1729696537210982400,8.371982421875,9.785564422607422,0.5012296438217163,-0.4023584723472595
1729696537220750600,8.38175048828125,9.785539627075195,0.501496434211731,-0.40263471007347107
1729696537230518800,8.391518798828125,9.785561561584473,0.5013353824615479,-0.4022906720638275
1729696537240287000,8.401286865234376,9.785591125488281,0.5012730360031128,-0.4016282558441162
1729696537250055200,8.41105517578125,9.785616874694824,0.5011187195777893,-0.40119338035583496
1729696537259823400,8.4208232421875,9.785629272460938,0.5009629726409912,-0.4010995924472809
1729696537269591600,8.430591552734375,9.785629272460938,0.5008666515350342,-0.4012487828731537
1729696537279359700,8.44035986328125,9.785593032836914,0.5011579394340515,-0.4017412066459656
1729696537289128000,8.4501279296875,9.785601615905762,0.5012468099594116,-0.40142008662223816
1729696537298896100,8.459896240234375,9.785662651062012,0.5009795427322388,-0.4002433717250824
1729696537308664300,8.469664306640626,9.785737037658691,0.5004391074180603,-0.3991118371486664
1729696537318432500,8.4794326171875,9.785720825195312,0.5005879402160645,-0.39933139085769653
1729696537328200700,8.48920068359375,9.785675048828125,0.5007331371307373,-0.4002622067928314
1729696537337969000,8.498968994140625,9.785656929016113,0.5005862712860107,-0.40088433027267456
1729696537347737000,8.508737060546874,9.785663604736328,0.5003809928894043,-0.4009915590286255
1729696537357505300,8.51850537109375,9.785674095153809,0.5001980662345886,-0.4009455442428589
1729696537367273500,8.5282734375,9.785614013671875,0.5004886984825134,-0.40206649899482727
1729696537377041400,8.53804150390625,9.785581588745117,0.500403881072998,-0.4029636085033417
1729696537386809600,8.5478095703125,9.785588264465332,0.5004783272743225,-0.40271082520484924
1729696537396577800,8.557577880859375,9.785661697387695,0.500054121017456,-0.40145087242126465
1729696537406346000,8.567345947265625,9.785730361938477,0.4997394382953644,-0.4001910388469696
1729696537416114200,8.5771142578125,9.785749435424805,0.49976181983947754,-0.39966344833374023
1729696537425882400,8.58688232421875,9.785734176635742,0.49991655349731445,-0.3998437821865082
1729696537435650600,8.596650634765625,9.78570556640625,0.5002372860908508,-0.4001539945602417
1729696537445418800,8.606418701171876,9.785691261291504,0.500557005405426,-0.40008026361465454
1729696537455187000,8.61618701171875,9.785717964172363,0.5002898573875427,-0.399767130613327
1729696537464955100,8.625955078125,9.785723686218262,0.5000328421592712,-0.39994242787361145
1729696537474723300,8.635723388671876,9.785663604736328,0.5004537105560303,-0.400890976190567
1729696537484491500,8.645491455078124,9.78563117980957,0.500730037689209,-0.40136605501174927
1729696537494259700,8.655259765625,9.785654067993164,0.500527560710907,-0.40102988481521606
1729696537504028000,8.66502783203125,9.785696029663086,0.5004875659942627,-0.40007707476615906
1729696537513796000,8.674796142578124,9.78569221496582,0.5008662343025208,-0.3996817469596863
1729696537523564300,8.684564208984375,9.785691261291504,0.5007885694503784,-0.3998264670372009
1729696537533332500,8.69433251953125,9.785711288452148,0.5003701448440552,-0.39984461665153503
1729696537543100700,8.7041005859375,9.78567886352539,0.5005360841751099,-0.4004214107990265
1729696537552868900,8.713868896484374,9.78567886352539,0.5004542469978333,-0.40053772926330566
1729696537562637000,8.723636962890625,9.785709381103516,0.5002239942550659,-0.40005382895469666
1729696537572405200,8.7334052734375,9.78571891784668,0.500101625919342,-0.4000045955181122
1729696537582173400,8.74317333984375,9.78570556640625,0.5000424981117249,-0.40036725997924805
1729696537591941600,8.752941650390625,9.785677909851074,0.5002254843711853,-0.4008612632751465
1729696537601709800,8.762709716796875,9.785707473754883,0.49977245926856995,-0.4006664752960205
1729696537611478000,8.77247802734375,9.78573226928711,0.49959731101989746,-0.4002910554409027
1729696537621246200,8.78224609375,9.785737037658691,0.49989965558052063,-0.3997935652732849
1729696537631014400,8.792014404296875,9.78573226928711,0.5000553727149963,-0.3997083902359009
1729696537640782300,8.8017822265625,9.785727500915527,0.4998404085636139,-0.4000967741012573
1729696537650550500,8.811550537109374,9.785714149475098,0.4999278783798218,-0.4003174602985382
1729696537660319000,8.821319091796875,9.785723686218262,0.49987998604774475,-0.4001406133174896
1729696537670087200,8.831087158203125,9.785722732543945,0.5000903606414795,-0.39990413188934326
1729696537679855000,8.840855224609374,9.785711288452148,0.5002796649932861,-0.39992791414260864
1729696537689623300,8.850623291015625,9.78570556640625,0.5002208948135376,-0.4001538157463074
1729696537699391500,8.8603916015625,9.785689353942871,0.5005961656570435,-0.400098979473114
1729696537709159700,8.87015966796875,9.785687446594238,0.5006738305091858,-0.40006008744239807
1729696537718928000,8.879927978515624,9.785683631896973,0.500925600528717,-0.3998236656188965
1729696537728696000,8.889696044921875,9.785613059997559,0.5013083815574646,-0.4010586142539978
1729696537738464300,8.89946435546875,9.785497665405273,0.501992404460907,-0.40301358699798584
1729696537748232400,8.909232421875,9.785453796386719,0.5020009875297546,-0.40409231185913086
1729696537758000600,8.919000732421875,9.785490989685059,0.5017839670181274,-0.40343740582466125
1729696537767768800,8.928768798828125,9.785630226135254,0.5006901025772095,-0.40139129757881165
1729696537777537000,8.938537109375,9.785664558410645,0.500645637512207,-0.40062248706817627
1729696537787305200,8.94830517578125,9.785579681396484,0.5011591911315918,-0.40207916498184204
1729696537797073400,8.958073486328125,9.785526275634766,0.5015275478363037,-0.40293383598327637
1729696537806841600,8.967841552734376,9.785597801208496,0.5009316205978394,-0.4019116163253784
1729696537816609800,8.97760986328125,9.785661697387695,0.5005610585212708,-0.40082085132598877
1729696537826378000,8.9873779296875,9.785639762878418,0.5006402730941772,-0.4012443721294403
1729696537836146200,8.997146240234375,9.785558700561523,0.5009260177612305,-0.40285879373550415
1729696537845914400,9.006914306640626,9.785531997680664,0.5010573863983154,-0.4033275246620178
1729696537855682600,9.0166826171875,9.78557014465332,0.501001238822937,-0.4024884104728699
1729696537865450800,9.02645068359375,9.785687446594238,0.5003795027732849,-0.4004071056842804
1729696537875219000,9.036218994140626,9.785767555236816,0.4996543228626251,-0.3993648290634155
1729696537884987100,9.045987060546874,9.785715103149414,0.49983713030815125,-0.4003988802433014
1729696537894755300,9.05575537109375,9.785599708557129,0.5005536079406738,-0.40232744812965393
1729696537904523500,9.0655234375,9.785565376281738,0.5009491443634033,-0.4026602804660797
1729696537914291700,9.075291748046874,9.785665512084961,0.500528872013092,-0.4007561206817627
1729696537924060000,9.085059814453125,9.78573226928711,0.50047767162323,-0.39919397234916687
1729696537933828000,9.094828125,9.785699844360352,0.5006610751152039,-0.3997596502304077
1729696537943596300,9.10459619140625,9.785602569580078,0.5013906359672546,-0.4012056291103363
1729696537953364500,9.114364501953125,9.78552532196045,0.5020504593849182,-0.402281790971756
1729696537963132700,9.124132568359375,9.785569190979004,0.5017083287239075,-0.4016408920288086
1729696537972900900,9.13390087890625,9.785654067993164,0.5012778639793396,-0.4001034200191498
1729696537982669000,9.1436689453125,9.785684585571289,0.5011019110679626,-0.39958035945892334
1729696537992437200,9.153437255859375,9.785642623901367,0.5013006329536438,-0.4003433883190155
1729696538002205400,9.163205322265625,9.785614013671875,0.5014153122901917,-0.40090706944465637
1729696538011973600,9.1729736328125,9.785603523254395,0.5015281438827515,-0.401022732257843
1729696538021741800,9.182741943359375,9.785677909851074,0.5008696913719177,-0.40005648136138916
1729696538031510000,9.192510009765625,9.785749435424805,0.5004364252090454,-0.3988288640975952
1729696538041278200,9.2022783203125,9.785731315612793,0.5006210803985596,-0.39903485774993896
1729696538051046400,9.21204638671875,9.785643577575684,0.5013574361801147,-0.40025100111961365
1729696538060814600,9.221814697265625,9.78558349609375,0.5017015933990479,-0.4013030230998993
1729696538070582800,9.231582763671875,9.785588264465332,0.5014732480049133,-0.40147197246551514
1729696538080351000,9.24135107421875,9.78561782836914,0.501253068447113,-0.4010113477706909
1729696538090119200,9.251119140625,9.78567886352539,0.5010023713111877,-0.3998187780380249
1729696538099887400,9.260887451171875,9.785684585571289,0.5010164976119995,-0.39967480301856995
1729696538109655600,9.270655517578126,9.785665512084961,0.5011302828788757,-0.4000297784805298
1729696538119423700,9.280423828125,9.785618782043457,0.5013903379440308,-0.40082064270973206
1729696538129192000,9.29019189453125,9.785584449768066,0.501457929611206,-0.4015943109989166
1729696538138960100,9.299960205078126,9.785624504089355,0.501126229763031,-0.401027649641037
1729696538148728000,9.30972802734375,9.78568172454834,0.5008471608161926,-0.3999587595462799
1729696538158496500,9.31949658203125,9.785714149475098,0.5007287263870239,-0.3993200957775116
1729696538168264700,9.3292646484375,9.785698890686035,0.5007299184799194,-0.3996901512145996
1729696538178033000,9.339032958984374,9.785619735717773,0.5012519359588623,-0.40097859501838684
1729696538187800800,9.34880078125,9.785582542419434,0.501442551612854,-0.40165048837661743
1729696538197569300,9.3585693359375,9.785619735717773,0.5011436939239502,-0.40111714601516724
1729696538207337500,9.36833740234375,9.785659790039062,0.5011793375015259,-0.4001008868217468
1729696538217105400,9.37810546875,9.785687446594238,0.5011625289916992,-0.3994355797767639
1729696538226873600,9.38787353515625,9.785682678222656,0.5012819766998291,-0.39938193559646606
1729696538236642000,9.39764208984375,9.78565788269043,0.5012638568878174,-0.4000529944896698
1729696538246410200,9.40741015625,9.785627365112305,0.5011636018753052,-0.40089496970176697
1729696538256178200,9.41717822265625,9.785626411437988,0.5009768605232239,-0.401162326335907
1729696538265946400,9.4269462890625,9.785676002502441,0.5006355047225952,-0.40035316348075867
1729696538275714800,9.43671484375,9.785715103149414,0.5003785490989685,-0.3997219502925873
1729696538285482800,9.446482666015624,9.785727500915527,0.5006465315818787,-0.39909496903419495
1729696538295251000,9.4562509765625,9.785711288452148,0.5006219148635864,-0.39951664209365845
1729696538305019100,9.46601904296875,9.785693168640137,0.500430703163147,-0.40018951892852783
1729696538314787600,9.47578759765625,9.7857027053833,0.5001631379127502,-0.40030384063720703
1729696538324555500,9.485555419921875,9.785738945007324,0.49975255131721497,-0.3999384343624115
1729696538334323700,9.49532373046875,9.78574275970459,0.49989137053489685,-0.3996596336364746
1729696538344092200,9.505092041015626,9.785738945007324,0.5000036954879761,-0.39961522817611694
1729696538353860000,9.514860107421875,9.785726547241211,0.49992141127586365,-0.4000331461429596
1729696538363628300,9.524628173828125,9.785689353942871,0.5001668930053711,-0.40063896775245667
1729696538373396700,9.534396728515626,9.785684585571289,0.5000079274177551,-0.4009462296962738
1729696538383165000,9.5441650390625,9.785688400268555,0.49989157915115356,-0.40098294615745544
1729696538392932900,9.553932861328125,9.785736083984375,0.4994657635688782,-0.4003719687461853
1729696538402701000,9.563701171875,9.785717964172363,0.49979397654533386,-0.4004095196723938
1729696538412469500,9.573469482421874,9.78570556640625,0.49982866644859314,-0.4006728231906891
1729696538422237400,9.583237548828125,9.785674095153809,0.5000973343849182,-0.4010713994503021
1729696538432005600,9.593005615234375,9.785649299621582,0.5003731846809387,-0.40132349729537964
1729696538441774000,9.602774169921876,9.785653114318848,0.5004293918609619,-0.4011867940425873
1729696538451542300,9.612542236328125,9.785669326782227,0.5005233883857727,-0.40065276622772217
1729696538461310200,9.622310302734375,9.785676002502441,0.500612199306488,-0.4004180133342743
1729696538471078400,9.632078369140626,9.785661697387695,0.5006503462791443,-0.4006919860839844
1729696538480846800,9.641846923828124,9.785636901855469,0.5008001327514648,-0.4011233150959015
1729696538490614800,9.65161474609375,9.78561019897461,0.501124918460846,-0.4013512134552002
1729696538500383000,9.661383056640625,9.785614967346191,0.5007952451705933,-0.4016675055027008
1729696538510151400,9.6711513671875,9.785629272460938,0.5008127093315125,-0.4012961983680725
1729696538519919600,9.680919677734375,9.785619735717773,0.5011689066886902,-0.40107959508895874
1729696538529687600,9.6906875,9.785601615905762,0.5013371706008911,-0.4012938141822815
1729696538539456000,9.7004560546875,9.78560733795166,0.5013477206230164,-0.4011671245098114
1729696538549224200,9.71022412109375,9.785597801208496,0.5013799071311951,-0.40133583545684814
1729696538558992100,9.7199921875,9.7855863571167,0.5014190673828125,-0.4015834331512451
1729696538568760600,9.729760498046875,9.785566329956055,0.5020696520805359,-0.4012649655342102
1729696538578528800,9.73952880859375,9.785561561584473,0.5022846460342407,-0.4011191725730896
1729696538588297000,9.749296875,9.785572052001953,0.5023870468139648,-0.4007284641265869
1729696538598065200,9.759065185546875,9.785569190979004,0.502267599105835,-0.40094801783561707
1729696538607833300,9.768833251953126,9.785575866699219,0.5020262598991394,-0.4010990560054779
1729696538617601500,9.7786015625,9.785566329956055,0.5020036101341248,-0.40134960412979126
1729696538627369700,9.78836962890625,9.785567283630371,0.5019399523735046,-0.4014071822166443
1729696538637138000,9.798137939453126,9.785589218139648,0.5016491413116455,-0.40120959281921387
1729696538646906000,9.807906005859374,9.785614013671875,0.5013042688369751,-0.4010395407676697
1729696538656674300,9.81767431640625,9.78559684753418,0.5017882585525513,-0.4008597731590271
1729696538666442500,9.8274423828125,9.785611152648926,0.5016630291938782,-0.40066877007484436
1729696538676210700,9.837210693359374,9.785606384277344,0.5017234683036804,-0.40071728825569153
1729696538685979000,9.846978759765625,9.785612106323242,0.5015711784362793,-0.40078485012054443
1729696538695747000,9.8567470703125,9.78563117980957,0.5013190507888794,-0.4006096422672272
1729696538705515300,9.866515380859376,9.785655975341797,0.5014089345932007,-0.3998764455318451
1729696538715283500,9.876283447265624,9.78568172454834,0.5010331869125366,-0.39974740147590637
1729696538725051600,9.8860517578125,9.785632133483887,0.501317024230957,-0.400596559047699
1729696538734819800,9.89581982421875,9.785572052001953,0.5016987919807434,-0.40159258246421814
1729696538744588000,9.905588134765624,9.785605430603027,0.501178503036499,-0.4014057517051697
1729696538754356200,9.915356201171875,9.785661697387695,0.5010901689529419,-0.40014463663101196
1729696538764124400,9.92512451171875,9.785676956176758,0.501027524471283,-0.39985907077789307
1729696538773892600,9.934892578125,9.78564453125,0.5013009309768677,-0.4002988338470459
1729696538783660800,9.944660888671875,9.785629272460938,0.5008416175842285,-0.4012559950351715
1729696538793429000,9.954428955078125,9.785603523254395,0.501066267490387,-0.40161484479904175
1729696538803197200,9.964197265625,9.785669326782227,0.5005667209625244,-0.4006368815898895
1729696538812965400,9.97396533203125,9.785725593566895,0.5001363754272461,-0.39979612827301025
1729696538822733600,9.983733642578125,9.78573226928711,0.5000590085983276,-0.3997279107570648
1729696538832501800,9.993501708984375,9.785674095153809,0.5005035400390625,-0.40058037638664246
1729696538842270000,10.00327001953125,9.785638809204102,0.5007781386375427,-0.40110650658607483
1729696538852038100,10.0130380859375,9.785660743713379,0.5009291768074036,-0.40038061141967773
1729696538861806300,10.022806396484375,9.785710334777832,0.5005112886428833,-0.39968955516815186
1729696538871574500,10.032574462890626,9.785699844360352,0.5007798075675964,-0.39960619807243347
1729696538881342700,10.0423427734375,9.78564739227295,0.5012434124946594,-0.4003020226955414
1729696538891111000,10.05211083984375,9.785625457763672,0.5015427470207214,-0.4004720449447632
1729696538900879000,10.061879150390626,9.785608291625977,0.5017948150634766,-0.4005744159221649
1729696538910647300,10.071647216796874,9.785636901855469,0.5015835762023926,-0.4001288414001465
1729696538920415500,10.08141552734375,9.785622596740723,0.501817524433136,-0.4001840054988861
1729696538930183700,10.09118359375,9.785633087158203,0.5016094446182251,-0.40019217133522034
1729696538939951900,10.100951904296876,9.785611152648926,0.5018600225448608,-0.40040987730026245
1729696538949720000,10.110719970703125,9.785615921020508,0.501709520816803,-0.400484561920166
1729696538959488300,10.12048828125,9.78563404083252,0.5014891624450684,-0.400325208902359
1729696538969256400,10.13025634765625,9.785638809204102,0.5014971494674683,-0.4002075493335724
1729696538979024600,10.140024658203124,9.78561019897461,0.5018125772476196,-0.4004867374897003
1729696538988792800,10.149792724609375,9.785593032836914,0.5018885135650635,-0.40082821249961853
1729696538998561000,10.15956103515625,9.785603523254395,0.5015491843223572,-0.4010164439678192
1729696539008329200,10.1693291015625,9.785561561584473,0.5019162893295288,-0.4015936553478241
1729696539018097400,10.179097412109375,9.785567283630371,0.501584529876709,-0.4018266201019287
1729696539027865600,10.188865478515625,9.78554630279541,0.5020317435264587,-0.40179547667503357
1729696539037633800,10.1986337890625,9.78554916381836,0.5019000768661499,-0.4018801748752594
1729696539047402000,10.208402099609375,9.785561561584473,0.5016391277313232,-0.40191248059272766
1729696539057170200,10.218170166015625,9.785577774047852,0.5016749501228333,-0.40148553252220154
1729696539066938400,10.2279384765625,9.785625457763672,0.5010793805122375,-0.40107110142707825
1729696539076706600,10.23770654296875,9.78563117980957,0.5007922053337097,-0.4012443721294403
1729696539086474800,10.247474853515625,9.78561019897461,0.500723123550415,-0.4018697142601013
1729696539096243200,10.2572431640625,9.785598754882812,0.5008877515792847,-0.4019448459148407
1729696539106011100,10.26701123046875,9.78559684753418,0.5010169744491577,-0.4017951488494873
1729696539115779300,10.276779296875,9.785623550415039,0.5007857084274292,-0.4014717638492584
1729696539125547800,10.2865478515625,9.785614967346191,0.5009059309959412,-0.4015141725540161
1729696539135316000,10.29631591796875,9.785609245300293,0.5009775161743164,-0.40155228972435
1729696539145084200,10.306084228515624,9.785598754882812,0.5010687708854675,-0.401719868183136
1729696539154852400,10.315852294921875,9.785606384277344,0.5008978843688965,-0.401751309633255
1729696539164620500,10.32562060546875,9.785612106323242,0.5009117722511292,-0.401567667722702
1729696539174388700,10.335388671875,9.785623550415039,0.500892698764801,-0.40132829546928406
1729696539184157000,10.345156982421875,9.785640716552734,0.500643253326416,-0.4012105464935303
1729696539193925000,10.354925048828125,9.78564167022705,0.5008131265640259,-0.4009733200073242
1729696539203693300,10.364693359375,9.78562068939209,0.5011500716209412,-0.4010987877845764
1729696539213461500,10.37446142578125,9.785633087158203,0.5009053349494934,-0.40109458565711975
1729696539223229700,10.384229736328125,9.785635948181152,0.5008772015571594,-0.40102535486221313
1729696539232998000,10.393997802734376,9.785645484924316,0.5007410049438477,-0.4009699821472168
1729696539242766000,10.40376611328125,9.785616874694824,0.5008943676948547,-0.4014873802661896
1729696539252534300,10.4135341796875,9.78560733795166,0.5009570717811584,-0.40163344144821167
1729696539262302500,10.423302490234375,9.785577774047852,0.5013381838798523,-0.4018861651420593
1729696539272070700,10.433070556640626,9.785579681396484,0.5014406442642212,-0.40172696113586426
1729696539281838800,10.4428388671875,9.785591125488281,0.5013627409934998,-0.4015236794948578
1729696539291607000,10.45260693359375,9.785612106323242,0.5009176731109619,-0.4016001224517822
1729696539301375200,10.462375244140626,9.785626411437988,0.5009640455245972,-0.4011918902397156
1729696539311143400,10.472143310546874,9.785628318786621,0.5008407235145569,-0.40126338601112366
1729696539320911600,10.48191162109375,9.78564167022705,0.5007569789886475,-0.40106645226478577
1729696539330679800,10.4916796875,9.78564453125,0.5008397102355957,-0.40088048577308655
1729696539340448000,10.501447998046874,9.785648345947266,0.5007569789886475,-0.4008934199810028
1729696539350216200,10.51121630859375,9.785654067993164,0.5008248090744019,-0.4006730020046234
1729696539359984400,10.520984375,9.785652160644531,0.5011287331581116,-0.4003317058086395
1729696539369752600,10.530752685546876,9.785672187805176,0.5008559226989746,-0.40018582344055176
1729696539379520800,10.540520751953125,9.785679817199707,0.5006963610649109,-0.40021100640296936
1729696539389289000,10.5502890625,9.78570556640625,0.5003246665000916,-0.40002626180648804
1729696539399057200,10.56005712890625,9.785700798034668,0.5005384683609009,-0.39989811182022095
1729696539408825600,10.56982568359375,9.785713195800781,0.5003980994224548,-0.3997620642185211
1729696539418593500,10.579593505859375,9.785696029663086,0.5006345510482788,-0.3998720049858093
1729696539428362000,10.589362060546875,9.785682678222656,0.5008968710899353,-0.39986929297447205
1729696539438130200,10.599130126953124,9.785664558410645,0.5010294914245605,-0.4001452624797821
1729696539447898000,10.608898193359375,9.78564739227295,0.5014036297798157,-0.4001189172267914
1729696539457666600,10.61866650390625,9.785635948181152,0.5016314387321472,-0.4000973403453827
1729696539467434800,10.628434814453126,9.785634994506836,0.5018622875213623,-0.39981794357299805
1729696539477203000,10.638202880859374,9.785636901855469,0.5017142295837402,-0.39997416734695435
1729696539486971100,10.64797119140625,9.785630226135254,0.5018782019615173,-0.39992961287498474
1729696539496739300,10.6577392578125,9.785627365112305,0.5018354654312134,-0.40005606412887573
1729696539506507500,10.667507568359374,9.785627365112305,0.5019392371177673,-0.39991044998168945
1729696539516275700,10.677275634765625,9.785619735717773,0.5018821954727173,-0.4001796245574951
1729696539526044000,10.6870439453125,9.785621643066406,0.501812219619751,-0.4002302885055542
1729696539535812000,10.69681201171875,9.785627365112305,0.5019492506980896,-0.3999207615852356
1729696539545580300,10.706580322265625,9.78563117980957,0.5017231702804565,-0.40010178089141846
1729696539555348500,10.716348388671875,9.785615921020508,0.5018254518508911,-0.40034356713294983
1729696539565116700,10.72611669921875,9.785593032836914,0.5022926330566406,-0.40031930804252625
1729696539574884900,10.735884765625,9.785579681396484,0.5023919939994812,-0.4005175828933716
1729696539584653000,10.745653076171875,9.785589218139648,0.5022474527359009,-0.40046072006225586
1729696539594421200,10.755421142578125,9.785623550415039,0.5018838047981262,-0.40009716153144836
1729696539604189400,10.765189453125,9.785632133483887,0.5017952919006348,-0.40000179409980774
1729696539613957600,10.77495751953125,9.785608291625977,0.501934289932251,-0.4003814160823822
1729696539623725800,10.784725830078125,9.7855806350708,0.5023714900016785,-0.40052613615989685
1729696539633494000,10.794493896484376,9.785558700561523,0.5026910305023193,-0.40066108107566833
1729696539643262200,10.80426220703125,9.785561561584473,0.5026258230209351,-0.400684118270874
1729696539653030700,10.81403076171875,9.785554885864258,0.5028983354568481,-0.40050405263900757
1729696539662798600,10.823798583984376,9.78555965423584,0.5029557943344116,-0.4002954661846161
1729696539672567000,10.833567138671874,9.785562515258789,0.5029619932174683,-0.4002327024936676
1729696539682335200,10.843335205078125,9.785569190979004,0.5026945471763611,-0.40039655566215515
1729696539692103400,10.853103515625,9.785592079162598,0.5024868845939636,-0.40010151267051697
1729696539701871600,10.86287158203125,9.785591125488281,0.5027646422386169,-0.3997819125652313
1729696539711639800,10.872639892578125,9.785588264465332,0.502757728099823,-0.3998491168022156
1729696539721408000,10.882407958984375,9.785573959350586,0.5028209686279297,-0.40013307332992554
1729696539731176200,10.89217626953125,9.785568237304688,0.5029153227806091,-0.40013590455055237
1729696539740944400,10.9019443359375,9.785577774047852,0.5028283596038818,-0.4000263214111328
1729696539750712600,10.911712646484375,9.785584449768066,0.5026508569717407,-0.40009042620658875
1729696539760480800,10.921480712890625,9.785588264465332,0.50230473279953,-0.40041792392730713
1729696539770249000,10.9312490234375,9.785587310791016,0.5021212100982666,-0.4006960988044739
1729696539780017200,10.94101708984375,9.785587310791016,0.5022189021110535,-0.4005632996559143
1729696539789785300,10.950785400390625,9.785565376281738,0.502623438835144,-0.4005705714225769
1729696539799553500,10.960553466796876,9.785562515258789,0.5023608803749084,-0.4009760916233063
1729696539809321700,10.97032177734375,9.785568237304688,0.5021238327026367,-0.4011189937591553
1729696539819090000,10.98008984375,9.785571098327637,0.5020900368690491,-0.40111368894577026
1729696539828858000,10.989858154296876,9.785571098327637,0.5020928978919983,-0.4011050760746002
1729696539838626300,10.999626220703124,9.785545349121094,0.5027389526367188,-0.40095388889312744
1729696539848394500,11.00939453125,9.785554885864258,0.5023664236068726,-0.40115413069725037
1729696539858163000,11.019162841796875,9.785551071166992,0.5024531483650208,-0.4011572003364563
1729696539867931000,11.028930908203124,9.785553932189941,0.502426266670227,-0.4011037051677704
1729696539877699300,11.03869921875,9.785529136657715,0.5026702284812927,-0.4014216363430023
1729696539887467500,11.048467529296875,9.785507202148438,0.5030044317245483,-0.4015422761440277
1729696539897235700,11.058235595703126,9.785497665405273,0.5031695365905762,-0.40155911445617676
1729696539907004000,11.06800390625,9.785479545593262,0.5033921599388123,-0.40170368552207947
1729696539916772000,11.077772216796875,9.78548526763916,0.503322184085846,-0.40164998173713684
1729696539926540300,11.087540283203126,9.785499572753906,0.5030933022499084,-0.4015967845916748
1729696539936308500,11.09730859375,9.785503387451172,0.502806544303894,-0.4018636643886566
1729696539946076700,11.10707666015625,9.785497665405273,0.5027332305908203,-0.4021158516407013
1729696539955844900,11.116844970703125,9.785511016845703,0.502484142780304,-0.4020751416683197
1729696539965613000,11.126613037109376,9.785497665405273,0.5027145743370056,-0.40212273597717285
1729696539975381200,11.13638134765625,9.785518646240234,0.5021538138389587,-0.40231382846832275
1729696539985149400,11.1461494140625,9.785515785217285,0.5021920204162598,-0.40233466029167175
1729696539994917600,11.155917724609376,9.785512924194336,0.5021905899047852,-0.40241020917892456
1729696540004685800,11.165685791015624,9.785530090332031,0.5021119713783264,-0.4020825922489166
1729696540014454000,11.1754541015625,9.785516738891602,0.5026241540908813,-0.4017510712146759
1729696540024222200,11.18522216796875,9.78553581237793,0.5026184320449829,-0.4013240933418274
1729696540033990700,11.19499072265625,9.785539627075195,0.5026208162307739,-0.40122222900390625
1729696540043758600,11.204758544921875,9.785537719726562,0.5028672218322754,-0.40093326568603516
1729696540053527000,11.214527099609375,9.785538673400879,0.5028489828109741,-0.4009288251399994
1729696540063295200,11.224295166015626,9.785542488098145,0.502849817276001,-0.40086954832077026
1729696540073063400,11.2340634765625,9.785562515258789,0.502633273601532,-0.4006434679031372
1729696540082831600,11.24383154296875,9.785574913024902,0.5026652216911316,-0.40029317140579224
1729696540092599800,11.253599853515626,9.785554885864258,0.5026941299438477,-0.40076732635498047
1729696540102368000,11.263367919921874,9.785545349121094,0.5029603838920593,-0.4006272256374359
1729696540112136200,11.27313623046875,9.785571098327637,0.5025321841239929,-0.40055516362190247
1729696540121904400,11.282904296875,9.785550117492676,0.5028913021087646,-0.4006200432777405
1729696540131672600,11.292672607421874,9.785547256469727,0.5031329989433289,-0.4004044830799103
1729696540141440800,11.302440673828125,9.785542488098145,0.5031690001487732,-0.4004732668399811
1729696540151209000,11.312208984375,9.785553932189941,0.5030696392059326,-0.40029406547546387
1729696540160977200,11.32197705078125,9.785538673400879,0.5034410953521729,-0.40021902322769165
1729696540170745300,11.331745361328124,9.785544395446777,0.503287672996521,-0.4002702832221985
1729696540180513500,11.341513427734375,9.78558349609375,0.5028647184371948,-0.39984503388404846
1729696540190281700,11.35128173828125,9.785577774047852,0.5029259920120239,-0.3999041020870209
1729696540200050200,11.36105029296875,9.785573959350586,0.5028426647186279,-0.4000774621963501
1729696540209818000,11.370818115234375,9.785572052001953,0.5029098391532898,-0.4000648558139801
1729696540219586600,11.380586669921875,9.785562515258789,0.5029469132423401,-0.4002470374107361
1729696540229354800,11.390354736328124,9.785574913024902,0.5028249025344849,-0.4000949263572693
1729696540239123000,11.400123046875,9.785564422607422,0.502922534942627,-0.40023285150527954
1729696540248891100,11.40989111328125,9.785553932189941,0.5030661821365356,-0.4003082513809204
1729696540258659300,11.419659423828126,9.78553581237793,0.5031642913818359,-0.4006233513355255
1729696540268427500,11.429427490234374,9.785538673400879,0.5030087828636169,-0.40076160430908203
1729696540278195700,11.43919580078125,9.785531997680664,0.5033515095710754,-0.40047454833984375
1729696540287964000,11.4489638671875,9.785561561584473,0.5030010938644409,-0.40020763874053955
1729696540297732000,11.458732177734374,9.785567283630371,0.502789318561554,-0.40034282207489014
1729696540307500300,11.468500244140625,9.78555679321289,0.5028761029243469,-0.40046146512031555
1729696540317268500,11.4782685546875,9.785568237304688,0.5026333928108215,-0.4005005955696106
1729696540327036700,11.48803662109375,9.785561561584473,0.5026198625564575,-0.4006712734699249
1729696540336804900,11.497804931640625,9.785573959350586,0.5026251077651978,-0.40037620067596436
1729696540346573300,11.5075732421875,9.785584449768066,0.5025699734687805,-0.4001752734184265
1729696540356341500,11.517341552734376,9.785584449768066,0.502501368522644,-0.40028613805770874
1729696540366109700,11.527109619140624,9.785575866699219,0.5025062561035156,-0.4004535675048828
1729696540375878000,11.5368779296875,9.785594940185547,0.5023418068885803,-0.4002285599708557
1729696540385646000,11.54664599609375,9.785571098327637,0.5027865171432495,-0.4002429246902466
1729696540395414300,11.556414306640624,9.785564422607422,0.5028570890426636,-0.400307834148407
1729696540405182500,11.566182373046875,9.7855806350708,0.5026906728744507,-0.4001210033893585
1729696540414950700,11.57595068359375,9.785587310791016,0.5026228427886963,-0.400045782327652
1729696540424718800,11.58571875,9.78557300567627,0.5028217434883118,-0.4001382887363434
1729696540434487000,11.595487060546875,9.785578727722168,0.5025457143783569,-0.40034615993499756
1729696540444255200,11.605255126953125,9.785575866699219,0.5024790167808533,-0.40050452947616577
1729696540454023400,11.6150234375,9.78558349609375,0.5024095773696899,-0.4004214406013489
1729696540463791600,11.62479150390625,9.785591125488281,0.502504289150238,-0.4001041650772095
1729696540473559800,11.634559814453125,9.785614013671875,0.5022085309028625,-0.39989495277404785
1729696540483328300,11.644328369140625,9.785635948181152,0.5018841028213501,-0.3997739851474762
1729696540493096400,11.654096435546874,9.78564739227295,0.501731812953949,-0.39970919489860535
1729696540502864600,11.66386474609375,9.785640716552734,0.501893162727356,-0.39967334270477295
1729696540512632800,11.6736328125,9.785638809204102,0.5020300149917603,-0.39954623579978943
1729696540522401000,11.683401123046876,9.785639762878418,0.5019655227661133,-0.39957964420318604
1729696540532169200,11.693169189453124,9.785635948181152,0.5017895698547363,-0.39988282322883606
1729696540541937400,11.7029375,9.785639762878418,0.5015389919281006,-0.40014177560806274
1729696540551705600,11.71270556640625,9.785632133483887,0.5015614032745361,-0.40028348565101624
1729696540561473800,11.722473876953124,9.785615921020508,0.5016805529594421,-0.4005395770072937
1729696540571242000,11.732241943359375,9.785627365112305,0.5014696717262268,-0.4005185663700104
1729696540581010200,11.74201025390625,9.785611152648926,0.5016880631446838,-0.4006388783454895
1729696540590778400,11.7517783203125,9.785618782043457,0.5016350746154785,-0.4005303382873535
1729696540600546600,11.761546630859375,9.785616874694824,0.5015627145767212,-0.4006335139274597
1729696540610315000,11.77131494140625,9.785602569580078,0.5017530918121338,-0.4007567763328552
1729696540620083200,11.781083251953126,9.78559684753418,0.5017340779304504,-0.4009535014629364
1729696540629851400,11.790851318359374,9.785595893859863,0.5018876194953918,-0.40076571702957153
1729696540639619600,11.80061962890625,9.785585403442383,0.5020481944084167,-0.40083467960357666
1729696540649387800,11.8103876953125,9.785584449768066,0.5020474791526794,-0.4008505046367645
1729696540659156000,11.820156005859374,9.785612106323242,0.5018994212150574,-0.40037161111831665
1729696540668924200,11.829924072265625,9.785622596740723,0.5019966959953308,-0.3999869227409363
1729696540678692400,11.8396923828125,9.785628318786621,0.5017998814582825,-0.4000779986381531
1729696540688460500,11.84946044921875,9.785612106323242,0.5019931197166443,-0.40022215247154236
1729696540698228700,11.859228759765625,9.785626411437988,0.5016821622848511,-0.40026187896728516
1729696540707997000,11.868996826171875,9.785659790039062,0.5013513565063477,-0.39987584948539734
1729696540717765000,11.87876513671875,9.785676956176758,0.5011141300201416,-0.39974403381347656
1729696540727533600,11.888533447265624,9.785665512084961,0.5013365149497986,-0.39973774552345276
1729696540737301800,11.8983017578125,9.785667419433594,0.501316249370575,-0.39972785115242004
1729696540747070000,11.908070068359375,9.785650253295898,0.5015419125556946,-0.39983317255973816
1729696540756838100,11.917838134765624,9.785655975341797,0.5012314319610596,-0.40009647607803345
1729696540766606300,11.9276064453125,9.785663604736328,0.5011249780654907,-0.40006500482559204
1729696540776374500,11.93737451171875,9.785674095153809,0.5010697841644287,-0.3998836874961853
1729696540786142700,11.947142822265626,9.785683631896973,0.5009500980377197,-0.3997734785079956
1729696540795911000,11.956910888671874,9.785679817199707,0.5008728504180908,-0.3999815881252289
1729696540805679000,11.96667919921875,9.785656929016113,0.5012915730476379,-0.40002283453941345
1729696540815447300,11.976447265625,9.785653114318848,0.5012370944023132,-0.400167316198349
1729696540825215500,11.986215576171874,9.78566837310791,0.5012040138244629,-0.39983323216438293
1729696540834984000,11.99598388671875,9.785658836364746,0.5012831687927246,-0.39997488260269165
1729696540844752000,12.005751953125,9.78567123413086,0.5010687708854675,-0.39995506405830383
1729696540854520300,12.015520263671876,9.785689353942871,0.500819981098175,-0.3998165428638458
1729696540864288500,12.02528857421875,9.785667419433594,0.5010360479354858,-0.40005919337272644
1729696540874056700,12.035056640625,9.785675048828125,0.5010446906089783,-0.3998880386352539
1729696540883825000,12.044824951171876,9.785670280456543,0.5012282133102417,-0.3997512757778168
1729696540893593000,12.054593017578124,9.785687446594238,0.5011584758758545,-0.39944055676460266
1729696540903361300,12.064361328125,9.785686492919922,0.5014610886573792,-0.39905986189842224
1729696540913129500,12.07412939453125,9.785696029663086,0.5013626217842102,-0.39894989132881165
1729696540922897700,12.083897705078124,9.785676002502441,0.5013889670372009,-0.3994297683238983
1729696540932665900,12.093665771484375,9.785669326782227,0.5015855431556702,-0.39933741092681885
1729696540942434300,12.103434326171875,9.785661697387695,0.5016282796859741,-0.39945170283317566
1729696540952202500,12.113202392578126,9.785684585571289,0.5014019012451172,-0.39920473098754883
1729696540961970700,12.122970703125,9.785701751708984,0.5011125206947327,-0.3991463780403137
1729696540971739000,12.13273876953125,9.785703659057617,0.5012034773826599,-0.399008572101593
1729696540981507000,12.142507080078126,9.7857027053833,0.5009939670562744,-0.3992653787136078
1729696540991275300,12.152275146484374,9.785697937011719,0.5011037588119507,-0.39925381541252136
1729696541001043500,12.16204345703125,9.785691261291504,0.5013003349304199,-0.39919137954711914
1729696541010811600,12.171811767578125,9.785710334777832,0.5010330080986023,-0.39901843667030334
1729696541020579800,12.181579833984374,9.785707473754883,0.5010088682174683,-0.3991451859474182
1729696541030348000,12.19134814453125,9.785706520080566,0.5009918808937073,-0.39919939637184143
1729696541040116200,12.2011162109375,9.7857027053833,0.5010843276977539,-0.3991544246673584
1729696541049884400,12.210884521484376,9.785684585571289,0.5014402866363525,-0.3991457223892212
1729696541059652900,12.22065283203125,9.785674095153809,0.5014637112617493,-0.3994036912918091
1729696541069421000,12.230421142578125,9.785666465759277,0.5015762448310852,-0.3994274437427521
1729696541079189200,12.240189208984376,9.785686492919922,0.5014803409576416,-0.39905595779418945
1729696541088957400,12.24995751953125,9.78569507598877,0.5013382434844971,-0.3990379571914673
1729696541098725600,12.2597255859375,9.785704612731934,0.5011483430862427,-0.3990267217159271
1729696541108493800,12.269493896484375,9.785693168640137,0.5013403296470642,-0.39905044436454773
1729696541118262000,12.279261962890626,9.78567886352539,0.5014697313308716,-0.39924564957618713
1729696541128030200,12.2890302734375,9.785669326782227,0.5016518831253052,-0.39925724267959595
1729696541137798400,12.29879833984375,9.785676002502441,0.5016128420829773,-0.3991541862487793
1729696541147566800,12.30856689453125,9.78570556640625,0.5012834072113037,-0.39883947372436523
1729696541157334800,12.318334716796874,9.785707473754883,0.5010900497436523,-0.39904674887657166
1729696541167103200,12.328103271484375,9.785707473754883,0.5008615255355835,-0.3993048071861267
1729696541176871400,12.337871337890626,9.7857027053833,0.500976026058197,-0.3992993235588074
1729696541186639600,12.3476396484375,9.785690307617188,0.5012388825416565,-0.39925849437713623
1729696541196407800,12.35740771484375,9.785679817199707,0.5011956095695496,-0.39956673979759216
1729696541206176000,12.367176025390625,9.785672187805176,0.5014484524726868,-0.3994234800338745
1729696541215944200,12.376944091796876,9.785669326782227,0.5016927719116211,-0.3992060422897339
1729696541225712400,12.38671240234375,9.785667419433594,0.5017489790916443,-0.3991892635822296
1729696541235480600,12.39648046875,9.785654067993164,0.5019153356552124,-0.3993043005466461
1729696541245248800,12.406248779296876,9.785667419433594,0.5018894672393799,-0.39899933338165283
1729696541255017200,12.416017333984374,9.785667419433594,0.5020330548286438,-0.39882180094718933
1729696541264785400,12.425785400390625,9.785670280456543,0.5021212100982666,-0.3986467123031616
1729696541274553600,12.4355537109375,9.78567886352539,0.5020641088485718,-0.3985225558280945
