time,seconds_elapsed,z,y,x
1729696528898304800,0.0593046875,0.0011453386396169662,0.019318044185638428,0.006032116711139679
1729696528908073000,0.069072998046875,0.0011453386396169662,-0.009391776286065578,-0.0025197449140250683
1729696528917841000,0.0788408203125,0.0005344913806766272,-0.02405211143195629,-0.008017370477318764
1729696528927609000,0.088609130859375,0.0011453386396169662,-0.010002624243497849,-0.0037414394319057465
1729696528937377300,0.098377197265625,0.0005344913806766272,0.015042114071547985,0.004199574701488018
1729696528947145200,0.108145263671875,0.0005344913806766272,0.022372281178832054,0.007253811229020357
1729696528956913400,0.117913330078125,0.0011453386396169662,0.0022143214009702206,0.0005344913806766272
1729696528966681300,0.127681396484375,0.0011453386396169662,-0.018554486334323883,-0.004963133949786425
1729696528976449500,0.137449462890625,0.0005344913806766272,-0.01916533336043358,-0.005573981441557407
1729696528986217500,0.147217529296875,0.0005344913806766272,0.00038177953683771193,0.0005344913806766272
1729696528995985700,0.156985595703125,0.0005344913806766272,0.018096350133419037,0.006032116711139679
1729696529005753600,0.166753662109375,0.0011453386396169662,0.014431266114115715,0.004810422193259001
1729696529015521800,0.176521728515625,0.0011453386396169662,-0.004504998680204153,-0.00129805039614439
1729696529025289700,0.186289794921875,0.0005344913806766272,-0.017332790419459343,-0.004963133949786425
1729696529035058000,0.196057861328125,0.0011453386396169662,-0.010613471269607544,-0.0025197449140250683
1729696529044826000,0.205826171875,-0.00007635590736754239,0.0064902519807219505,0.0023670331574976444
1729696529054594000,0.215593994140625,0.0005344913806766272,0.014431266114115715,0.004199574701488018
1729696529064362200,0.2253623046875,0.0011453386396169662,0.007711946498602629,0.0023670331574976444
1729696529074130200,0.235130126953125,0.0005344913806766272,-0.007559234742075205,-0.0019088976550847292
1729696529083898400,0.2448984375,0.0005344913806766272,-0.013667707331478596,-0.004352286923676729
1729696529093666300,0.254666259765625,0.0017561858985573053,-0.005726693198084831,-0.0019088976550847292
1729696529103434500,0.2644345703125,0.0011453386396169662,0.007711946498602629,0.0023670331574976444
1729696529113202400,0.274202392578125,0.0011453386396169662,0.010155336000025272,0.0029778804164379835
1729696529122970600,0.283970703125,0.0005344913806766272,0.0022143214009702206,0.0005344913806766272
1729696529132738800,0.29373876953125,0.0005344913806766272,-0.008170082233846188,-0.0031305921729654074
1729696529142506800,0.3035068359375,0.0005344913806766272,-0.008780929259955883,-0.0031305921729654074
1729696529152275000,0.31327490234375,0.0005344913806766272,-0.002061609411612153,-0.00007635590736754239
1729696529162043000,0.32304296875,0.0017561858985573053,0.005879404954612255,0.0017561858985573053
1729696529171811000,0.33281103515625,0.0011453386396169662,0.0064902519807219505,0.0023670331574976444
1729696529181579000,0.3425791015625,0.0011453386396169662,0.0022143214009702206,0.0005344913806766272
1729696529191347200,0.35234716796875,0.0005344913806766272,-0.0038941511884331703,-0.000687203137204051
1729696529201115100,0.362115234375,0.0011453386396169662,-0.0038941511884331703,-0.00007635590736754239
1729696529210883300,0.37188330078125,0.0011453386396169662,-0.00022906772210262716,-0.00007635590736754239
1729696529220651300,0.3816513671875,0.0017561858985573053,0.0028251686599105597,0.0005344913806766272
1729696529230419500,0.39141943359375,0.0017561858985573053,0.0016034740256145597,0.0005344913806766272
1729696529240187400,0.4011875,0.0011453386396169662,-0.0008399150101467967,-0.000687203137204051
1729696529249955600,0.41095556640625,0.0005344913806766272,-0.0014507622690871358,-0.00129805039614439
1729696529259723800,0.420723876953125,0.0017561858985573053,-0.0014507622690871358,-0.000687203137204051
1729696529269491700,0.43049169921875,0.0011453386396169662,0.00038177953683771193,-0.00007635590736754239
1729696529279260000,0.440260009765625,0.0005344913806766272,0.00038177953683771193,-0.00007635590736754239
1729696529289027800,0.45002783203125,0.0011453386396169662,-0.00022906772210262716,-0.000687203137204051
1729696529298796000,0.459796142578125,0.0005344913806766272,0.00038177953683771193,-0.00007635590736754239
1729696529308564000,0.46956396484375,0.0011453386396169662,0.0009926267666742206,0.0005344913806766272
1729696529318332200,0.479332275390625,0.0011453386396169662,0.0009926267666742206,0.0005344913806766272
1729696529328100000,0.48910009765625,0.0011453386396169662,-0.0008399150101467967,-0.00007635590736754239
1729696529337868300,0.498868408203125,0.0005344913806766272,-0.0032833039294928312,-0.000687203137204051
1729696529347636500,0.508636474609375,0.0011453386396169662,-0.002061609411612153,-0.00007635590736754239
1729696529357404400,0.518404296875,0.0005344913806766272,0.0016034740256145597,0.0005344913806766272
1729696529367172600,0.528172607421875,0.0005344913806766272,0.004046862944960594,0.0005344913806766272
1729696529376940500,0.5379404296875,0.0011453386396169662,0.0016034740256145597,0.0005344913806766272
1729696529386708700,0.547708740234375,0.0011453386396169662,-0.0014507622690871358,-0.000687203137204051
1729696529396476700,0.5574765625,0.0005344913806766272,-0.002672456670552492,-0.000687203137204051
1729696529406244900,0.567244873046875,0.0005344913806766272,-0.0014507622690871358,-0.00007635590736754239
1729696529416012800,0.5770126953125,0.0005344913806766272,0.0022143214009702206,0.0005344913806766272
1729696529425781000,0.586781005859375,0.0005344913806766272,0.004046862944960594,0.0005344913806766272
1729696529435549200,0.596549072265625,0.0011453386396169662,0.0009926267666742206,0.0017561858985573053
1729696529445317000,0.606317138671875,0.0011453386396169662,-0.002672456670552492,-0.000687203137204051
1729696529455085300,0.616085205078125,0.0011453386396169662,-0.004504998680204153,-0.0019088976550847292
1729696529464853200,0.625853271484375,0.0017561858985573053,-0.0008399150101467967,-0.00007635590736754239
1729696529474621400,0.635621337890625,0.0011453386396169662,0.0028251686599105597,0.0005344913806766272
1729696529484389400,0.645389404296875,0.0011453386396169662,0.0034360159188508987,0.0011453386396169662
1729696529494157600,0.655157470703125,0.0011453386396169662,0.0009926267666742206,0.0011453386396169662
1729696529503925800,0.66492578125,0.0011453386396169662,-0.0032833039294928312,-0.000687203137204051
1729696529513693700,0.674693603515625,0.0005344913806766272,-0.0032833039294928312,-0.000687203137204051
1729696529523462000,0.6844619140625,0.0005344913806766272,-0.002672456670552492,-0.00007635590736754239
1729696529533229800,0.694229736328125,0.0011453386396169662,0.0016034740256145597,-0.00007635590736754239
1729696529542998000,0.703998046875,0.0011453386396169662,0.0028251686599105597,0.0017561858985573053
1729696529552766000,0.713765869140625,0.0011453386396169662,0.0016034740256145597,0.0011453386396169662
1729696529562534100,0.7235341796875,0.0011453386396169662,-0.002061609411612153,-0.00007635590736754239
1729696529572302000,0.733302001953125,0.0005344913806766272,-0.0038941511884331703,-0.00007635590736754239
1729696529582070300,0.7430703125,0.0011453386396169662,-0.002672456670552492,-0.000687203137204051
1729696529591838500,0.75283837890625,0.0017561858985573053,0.00038177953683771193,0.0005344913806766272
1729696529601606400,0.7626064453125,0.0017561858985573053,0.0016034740256145597,0.0011453386396169662
1729696529611374600,0.77237451171875,0.0011453386396169662,0.00038177953683771193,-0.00007635590736754239
1729696529621142500,0.782142578125,0.0011453386396169662,-0.0014507622690871358,-0.00007635590736754239
1729696529630910700,0.79191064453125,0.0011453386396169662,-0.0032833039294928312,-0.000687203137204051
1729696529640678700,0.8016787109375,0.0011453386396169662,-0.002672456670552492,-0.0019088976550847292
1729696529650446800,0.81144677734375,0.0005344913806766272,-0.002061609411612153,-0.00007635590736754239
1729696529660214800,0.82121484375,0.0011453386396169662,0.0016034740256145597,-0.00007635590736754239
1729696529669983000,0.83098291015625,0.0005344913806766272,0.0009926267666742206,0.0005344913806766272
1729696529679751200,0.840751220703125,0.0011453386396169662,0.0009926267666742206,0.0005344913806766272
1729696529689519000,0.85051904296875,0.0017561858985573053,-0.00022906772210262716,-0.00007635590736754239
1729696529699287300,0.860287353515625,0.0011453386396169662,-0.002061609411612153,0.0005344913806766272
1729696529709055200,0.87005517578125,0.0011453386396169662,-0.002061609411612153,0.0005344913806766272
1729696529718823400,0.879823486328125,0.0005344913806766272,-0.0008399150101467967,0.0005344913806766272
1729696529728591400,0.88959130859375,0.0005344913806766272,0.0022143214009702206,0.0017561858985573053
1729696529738359600,0.899359619140625,0.0005344913806766272,0.0028251686599105597,0.0017561858985573053
1729696529748127500,0.90912744140625,0.0005344913806766272,0.00038177953683771193,0.0011453386396169662
1729696529757895700,0.918895751953125,0.0011453386396169662,-0.0038941511884331703,-0.00007635590736754239
1729696529767663900,0.928663818359375,0.0011453386396169662,-0.004504998680204153,-0.00007635590736754239
1729696529777431800,0.938431884765625,0.0011453386396169662,0.0009926267666742206,0.0011453386396169662
1729696529787200000,0.948199951171875,0.0011453386396169662,0.0034360159188508987,0.0023670331574976444
1729696529796968000,0.957968017578125,0.0011453386396169662,0.0016034740256145597,0.0017561858985573053
1729696529806736100,0.967736083984375,0.0011453386396169662,-0.002061609411612153,-0.00007635590736754239
1729696529816504000,0.977504150390625,0.0011453386396169662,-0.004504998680204153,-0.00007635590736754239
1729696529826272300,0.987272216796875,0.0011453386396169662,-0.002672456670552492,-0.000687203137204051
1729696529836040400,0.99704052734375,0.0011453386396169662,0.00038177953683771193,0.0011453386396169662
1729696529845808400,1.006808349609375,0.0017561858985573053,0.0022143214009702206,0.0011453386396169662
1729696529855576600,1.01657666015625,0.0011453386396169662,0.0009926267666742206,0.0005344913806766272
1729696529865344500,1.026344482421875,0.0011453386396169662,-0.002061609411612153,-0.00007635590736754239
1729696529875112700,1.03611279296875,0.0011453386396169662,-0.0051158457063138485,-0.000687203137204051
1729696529884880600,1.045880615234375,0.0017561858985573053,-0.0038941511884331703,-0.00007635590736754239
1729696529894648800,1.05564892578125,0.0011453386396169662,0.00038177953683771193,0.0005344913806766272
1729696529904416800,1.065416748046875,0.0017561858985573053,0.0022143214009702206,0.0017561858985573053
1729696529914185000,1.07518505859375,0.0017561858985573053,0.0016034740256145597,0.0011453386396169662
1729696529923953200,1.084953125,0.0023670331574976444,-0.0014507622690871358,0.0005344913806766272
1729696529933721000,1.09472119140625,0.0017561858985573053,-0.004504998680204153,0.0005344913806766272
1729696529943489300,1.1044892578125,0.0023670331574976444,-0.0051158457063138485,-0.00007635590736754239
1729696529953257200,1.11425732421875,0.0023670331574976444,-0.0014507622690871358,0.0005344913806766272
1729696529963025400,1.124025390625,0.0011453386396169662,0.0028251686599105597,0.0017561858985573053
1729696529972793300,1.13379345703125,0.0011453386396169662,0.004046862944960594,0.0011453386396169662
1729696529982561500,1.1435615234375,0.0017561858985573053,-0.00022906772210262716,0.0005344913806766272
1729696529992329700,1.153329833984375,0.0005344913806766272,-0.004504998680204153,-0.00129805039614439
1729696530002097700,1.16309765625,-0.000687203137204051,-0.0032833039294928312,-0.000687203137204051
1729696530011865900,1.172865966796875,-0.000687203137204051,0.0016034740256145597,0.0005344913806766272
1729696530021633800,1.1826337890625,-0.000687203137204051,0.009544488042593002,0.0023670331574976444
1729696530031402000,1.192402099609375,0.0017561858985573053,0.01382041908800602,0.0035887276753783226
1729696530041170200,1.202170166015625,0.0023670331574976444,0.004657710436731577,0.0029778804164379835
1729696530050938000,1.211938232421875,0.0017561858985573053,-0.014278554357588291,-0.0037414394319057465
1729696530060706300,1.221706298828125,0.0017561858985573053,-0.02160872146487236,-0.006184828467667103
1729696530070474200,1.23147412109375,0.0011453386396169662,-0.010002624243497849,-0.0025197449140250683
1729696530080242400,1.241242431640625,0.0011453386396169662,0.007101099472492933,0.0017561858985573053
1729696530090010400,1.25101025390625,0.0005344913806766272,0.018096350133419037,0.004199574701488018
1729696530099778600,1.260778564453125,0.0011453386396169662,0.019318044185638428,0.004810422193259001
1729696530109546800,1.270546630859375,0.0017561858985573053,0.0028251686599105597,0.0017561858985573053
1729696530119314700,1.280314697265625,0.0011453386396169662,-0.022219568490982056,-0.006184828467667103
1729696530129083000,1.290082763671875,0.0011453386396169662,-0.031382277607917786,-0.009849912486970425
1729696530138850800,1.299850830078125,0.0011453386396169662,-0.006948387715965509,-0.0031305921729654074
1729696530148619000,1.309618896484375,0.0005344913806766272,0.027259059250354767,0.007253811229020357
1729696530158387200,1.31938720703125,0.0005344913806766272,0.032756682485342026,0.009697199799120426
1729696530168155100,1.329155029296875,0.0005344913806766272,0.0064902519807219505,0.0023670331574976444
1729696530177923300,1.33892333984375,0.0017561858985573053,-0.02160872146487236,-0.0067956759594380856
1729696530187691300,1.348691162109375,0.0017561858985573053,-0.030160583555698395,-0.00862821750342846
1729696530197459500,1.35845947265625,0.0011453386396169662,-0.014278554357588291,-0.004352286923676729
1729696530207227400,1.368227294921875,-0.00007635590736754239,0.01626380905508995,0.004199574701488018
1729696530216995600,1.37799560546875,0.0011453386396169662,0.03458922728896141,0.010308047756552696
1729696530226763800,1.387763671875,0.0017561858985573053,0.018096350133419037,0.006642963737249374
1729696530236531700,1.39753173828125,0.0011453386396169662,-0.019776180386543274,-0.005573981441557407
1729696530246300000,1.4072998046875,0.0005344913806766272,-0.03687990456819534,-0.01046075951308012
1729696530256068000,1.417068115234375,0.0005344913806766272,-0.014889402315020561,-0.0037414394319057465
1729696530265836000,1.4268359375,0.0005344913806766272,0.018707197159528732,0.006032116711139679
1729696530275604200,1.436604248046875,-0.00007635590736754239,0.031534988433122635,0.00908635277301073
1729696530285372200,1.4463720703125,-0.00007635590736754239,0.015042114071547985,0.004810422193259001
1729696530295140400,1.456140380859375,0.0011453386396169662,-0.01122431829571724,-0.0031305921729654074
1729696530304908300,1.465908203125,0.0023670331574976444,-0.02710634656250477,-0.007406522985547781
1729696530314676500,1.475676513671875,0.0017561858985573053,-0.02038702741265297,-0.005573981441557407
1729696530324444700,1.485444580078125,0.0011453386396169662,0.0022143214009702206,0.0011453386396169662
1729696530334212600,1.495212646484375,0.0011453386396169662,0.023593975231051445,0.007253811229020357
1729696530343980800,1.504980712890625,0.0017561858985573053,0.019318044185638428,0.006032116711139679
1729696530353749000,1.5147490234375,0.0011453386396169662,-0.004504998680204153,-0.000687203137204051
1729696530363517000,1.524516845703125,0.0011453386396169662,-0.02160872146487236,-0.004963133949786425
1729696530373285000,1.53428515625,0.0023670331574976444,-0.016721943393349648,-0.004963133949786425
1729696530383053000,1.544052978515625,0.0017561858985573053,-0.0008399150101467967,-0.000687203137204051
1729696530392821200,1.5538212890625,-0.00007635590736754239,0.012598725035786629,0.0035887276753783226
1729696530402589200,1.563589111328125,-0.00007635590736754239,0.016874656081199646,0.004810422193259001
1729696530412357400,1.573357421875,0.0011453386396169662,0.008933641016483307,0.0029778804164379835
1729696530422125600,1.58312548828125,0.0017561858985573053,-0.009391776286065578,-0.0019088976550847292
1729696530431893500,1.5928935546875,0.0017561858985573053,-0.02160872146487236,-0.006184828467667103
1729696530441661700,1.60266162109375,0.0005344913806766272,-0.014889402315020561,-0.004963133949786425
1729696530451429600,1.6124296875,0.0005344913806766272,0.004046862944960594,0.0005344913806766272
1729696530461197800,1.62219775390625,0.0011453386396169662,0.016874656081199646,0.004810422193259001
1729696530470966000,1.631966064453125,0.0005344913806766272,0.013209572061896324,0.0029778804164379835
1729696530480734000,1.64173388671875,0.0011453386396169662,-0.0008399150101467967,-0.00129805039614439
1729696530490502100,1.651502197265625,0.0011453386396169662,-0.009391776286065578,-0.0037414394319057465
1729696530500270300,1.661270263671875,0.0011453386396169662,-0.010002624243497849,-0.0031305921729654074
1729696530510038300,1.671038330078125,0.0011453386396169662,-0.0008399150101467967,-0.00007635590736754239
1729696530519806500,1.680806396484375,0.0017561858985573053,0.008322793990373611,0.0035887276753783226
1729696530529574400,1.690574462890625,0.0017561858985573053,0.009544488042593002,0.0017561858985573053
1729696530539342600,1.700342529296875,0.0011453386396169662,0.00038177953683771193,-0.00129805039614439
1729696530549110800,1.71011083984375,0.0005344913806766272,-0.006948387715965509,-0.0031305921729654074
1729696530558878700,1.719878662109375,0.0011453386396169662,-0.005726693198084831,-0.00129805039614439
1729696530568647000,1.72964697265625,0.0017561858985573053,-0.0014507622690871358,-0.000687203137204051
1729696530578414800,1.739414794921875,0.0005344913806766272,0.00038177953683771193,-0.000687203137204051
1729696530588183000,1.74918310546875,0.0005344913806766272,0.0016034740256145597,-0.000687203137204051
1729696530597951200,1.758951171875,0.0005344913806766272,0.0034360159188508987,-0.00007635590736754239
1729696530607719200,1.76871923828125,0.0005344913806766272,0.0028251686599105597,-0.00007635590736754239
1729696530617487400,1.7784873046875,0.0005344913806766272,-0.0032833039294928312,-0.0019088976550847292
1729696530627255600,1.788255615234375,0.0011453386396169662,-0.006337540224194527,-0.0031305921729654074
1729696530637023500,1.7980234375,0.0011453386396169662,-0.002672456670552492,-0.0019088976550847292
1729696530646791700,1.807791748046875,0.0005344913806766272,0.004046862944960594,0.0005344913806766272
1729696530656559600,1.8175595703125,0.0005344913806766272,0.0064902519807219505,0.0005344913806766272
1729696530666327800,1.827327880859375,-0.00007635590736754239,0.00038177953683771193,-0.00129805039614439
1729696530676096000,1.837095947265625,0.0005344913806766272,-0.0032833039294928312,-0.0019088976550847292
1729696530685864000,1.846864013671875,0.0011453386396169662,-0.0032833039294928312,-0.0031305921729654074
1729696530695632100,1.856632080078125,0.0005344913806766272,-0.0014507622690871358,-0.0019088976550847292
1729696530705400000,1.866400146484375,0.0005344913806766272,0.005879404954612255,-0.00007635590736754239
1729696530715168300,1.876168212890625,0.0005344913806766272,0.011377030052244663,0.0017561858985573053
1729696530724936400,1.8859365234375,0.0011453386396169662,0.004657710436731577,0.0011453386396169662
1729696530734704400,1.895704345703125,0.0017561858985573053,-0.008780929259955883,-0.0031305921729654074
1729696530744472600,1.90547265625,0.0011453386396169662,-0.01122431829571724,-0.004352286923676729
1729696530754240500,1.915240478515625,0.0011453386396169662,-0.0014507622690871358,-0.00129805039614439
1729696530764008700,1.9250087890625,0.0005344913806766272,0.010155336000025272,0.0023670331574976444
1729696530773777000,1.93477685546875,0.0005344913806766272,0.010155336000025272,0.0023670331574976444
1729696530783544800,1.944544921875,0.0011453386396169662,0.0022143214009702206,0.0005344913806766272
1729696530793313000,1.95431298828125,0.0011453386396169662,-0.006337540224194527,-0.0019088976550847292
1729696530803081200,1.964081298828125,0.0017561858985573053,-0.008780929259955883,-0.0037414394319057465
1729696530812849200,1.97384912109375,0.0011453386396169662,-0.0032833039294928312,-0.0019088976550847292
1729696530822617300,1.983617431640625,0.0011453386396169662,0.007101099472492933,0.0029778804164379835
1729696530832385500,1.993385498046875,0.0005344913806766272,0.009544488042593002,0.0035887276753783226
1729696530842153500,2.003153564453125,0.0011453386396169662,0.0016034740256145597,0.0017561858985573053
1729696530851921700,2.012921630859375,0.0017561858985573053,-0.006337540224194527,-0.00129805039614439
1729696530861689900,2.02268994140625,0.0011453386396169662,-0.008170082233846188,-0.0025197449140250683
1729696530871457800,2.032457763671875,0.0011453386396169662,-0.002061609411612153,-0.000687203137204051
1729696530881226000,2.04222607421875,0.0017561858985573053,0.005879404954612255,0.0011453386396169662
1729696530890994000,2.051993896484375,0.0011453386396169662,0.008322793990373611,0.0023670331574976444
1729696530900762000,2.06176220703125,0.0011453386396169662,0.004046862944960594,0.0011453386396169662
1729696530910530300,2.0715302734375,0.0023670331574976444,-0.005726693198084831,-0.00129805039614439
1729696530920298200,2.08129833984375,0.0017561858985573053,-0.01122431829571724,-0.0031305921729654074
1729696530930066400,2.09106640625,0.0017561858985573053,-0.0051158457063138485,-0.00129805039614439
1729696530939834400,2.10083447265625,0.0011453386396169662,0.004046862944960594,0.0017561858985573053
1729696530949602600,2.1106025390625,0.0017561858985573053,0.007711946498602629,0.0029778804164379835
1729696530959370800,2.120370849609375,0.0017561858985573053,0.0028251686599105597,0.0017561858985573053
1729696530969138700,2.130138671875,0.0017561858985573053,-0.004504998680204153,-0.00129805039614439
1729696530978907000,2.139906982421875,0.0017561858985573053,-0.009391776286065578,-0.0019088976550847292
1729696530988675000,2.149675048828125,0.0011453386396169662,-0.005726693198084831,-0.000687203137204051
1729696530998443000,2.159443115234375,0.0011453386396169662,0.00038177953683771193,0.0005344913806766272
1729696531008211200,2.169211181640625,0.0011453386396169662,0.005268557462841272,0.0023670331574976444
1729696531017979400,2.1789794921875,0.0011453386396169662,0.004657710436731577,0.0017561858985573053
1729696531027747300,2.188747314453125,0.0017561858985573053,-0.00022906772210262716,-0.00007635590736754239
1729696531037515500,2.198515625,0.0011453386396169662,-0.006948387715965509,-0.0025197449140250683
1729696531047283700,2.20828369140625,0.0005344913806766272,-0.008780929259955883,-0.0025197449140250683
1729696531057051600,2.2180517578125,0.0005344913806766272,-0.0032833039294928312,-0.000687203137204051
1729696531066819800,2.22781982421875,0.0005344913806766272,0.0016034740256145597,-0.00007635590736754239
1729696531076588000,2.237588134765625,0.0005344913806766272,0.0064902519807219505,0.0017561858985573053
1729696531086356000,2.24735595703125,-0.00007635590736754239,0.007711946498602629,0.0023670331574976444
1729696531096124200,2.257124267578125,-0.00007635590736754239,0.0022143214009702206,0.0011453386396169662
1729696531105892400,2.266892333984375,0.0005344913806766272,-0.006337540224194527,-0.00129805039614439
1729696531115660300,2.276660400390625,0.0005344913806766272,-0.008170082233846188,-0.0025197449140250683
1729696531125428500,2.286428466796875,0.0005344913806766272,-0.0014507622690871358,-0.000687203137204051
1729696531135196400,2.296196533203125,-0.00007635590736754239,0.005879404954612255,0.0017561858985573053
1729696531144964600,2.305964599609375,-0.00007635590736754239,0.008933641016483307,0.0023670331574976444
1729696531154732800,2.31573291015625,-0.00007635590736754239,0.0028251686599105597,0.0011453386396169662
1729696531164500700,2.325500732421875,-0.00007635590736754239,-0.0038941511884331703,-0.00129805039614439
1729696531174269000,2.33526904296875,-0.00007635590736754239,-0.008780929259955883,-0.0019088976550847292
1729696531184037000,2.345037109375,0.0005344913806766272,-0.0032833039294928312,-0.00007635590736754239
1729696531193805000,2.35480517578125,0.0005344913806766272,0.004657710436731577,0.0023670331574976444
1729696531203573200,2.3645732421875,0.0011453386396169662,0.008933641016483307,0.004199574701488018
1729696531213341400,2.374341552734375,0.0011453386396169662,0.0028251686599105597,0.0029778804164379835
1729696531223109400,2.384109375,0.0005344913806766272,-0.006337540224194527,-0.00007635590736754239
1729696531232877600,2.393877685546875,0.0005344913806766272,-0.008170082233846188,-0.00129805039614439
1729696531242645800,2.403645751953125,0.0005344913806766272,-0.0032833039294928312,0.0017561858985573053
1729696531252413700,2.41341357421875,-0.00007635590736754239,0.004046862944960594,0.0029778804164379835
1729696531262182000,2.423181884765625,0.0005344913806766272,0.004657710436731577,0.0029778804164379835
1729696531271950000,2.4329501953125,0.0005344913806766272,0.00038177953683771193,0.0017561858985573053
1729696531281718000,2.442718017578125,0.0005344913806766272,-0.0032833039294928312,-0.00007635590736754239
1729696531291486200,2.452486328125,0.0005344913806766272,-0.005726693198084831,-0.000687203137204051
1729696531301254400,2.46225439453125,0.0005344913806766272,-0.0014507622690871358,0.0005344913806766272
1729696531311022300,2.472022216796875,0.0005344913806766272,0.0028251686599105597,0.0023670331574976444
1729696531320790500,2.48179052734375,0.0005344913806766272,0.0028251686599105597,0.0023670331574976444
1729696531330558700,2.491558837890625,0.0005344913806766272,-0.00022906772210262716,0.0011453386396169662
1729696531340326700,2.50132666015625,0.0011453386396169662,-0.0038941511884331703,-0.00007635590736754239
1729696531350094800,2.5110947265625,0.0011453386396169662,-0.004504998680204153,0.0005344913806766272
1729696531359863000,2.520863037109375,0.0011453386396169662,-0.002061609411612153,0.0011453386396169662
1729696531369631000,2.530630859375,0.0011453386396169662,0.00038177953683771193,0.0011453386396169662
1729696531379399200,2.540399169921875,0.0005344913806766272,0.0009926267666742206,0.0005344913806766272
1729696531389167400,2.55016748046875,0.0011453386396169662,-0.00022906772210262716,0.0005344913806766272
1729696531398935300,2.559935302734375,0.0005344913806766272,-0.00022906772210262716,-0.00007635590736754239
1729696531408703500,2.569703369140625,0.0005344913806766272,-0.0008399150101467967,-0.00007635590736754239
1729696531418471700,2.5794716796875,0.0017561858985573053,0.00038177953683771193,0.0005344913806766272
1729696531428239600,2.589239501953125,0.0011453386396169662,-0.002061609411612153,0.0005344913806766272
1729696531438007800,2.5990078125,0.0005344913806766272,-0.006948387715965509,-0.0025197449140250683
1729696531447776000,2.60877587890625,-0.00007635590736754239,-0.0051158457063138485,-0.0019088976550847292
1729696531457544000,2.6185439453125,0.0005344913806766272,0.0064902519807219505,0.0023670331574976444
1729696531467312000,2.62831201171875,0.0005344913806766272,0.010155336000025272,0.004199574701488018
1729696531477080300,2.638080322265625,-0.00007635590736754239,0.0028251686599105597,-0.00007635590736754239
1729696531486848300,2.64784814453125,-0.00007635590736754239,-0.005726693198084831,-0.0025197449140250683
1729696531496616400,2.657616455078125,0.0005344913806766272,-0.006337540224194527,-0.0019088976550847292
1729696531506384600,2.667384521484375,0.0005344913806766272,-0.0008399150101467967,-0.00007635590736754239
1729696531516152600,2.677152587890625,0.0005344913806766272,0.0022143214009702206,-0.00007635590736754239
1729696531525920800,2.686920654296875,0.0005344913806766272,0.008933641016483307,0.0023670331574976444
1729696531535689000,2.69668896484375,0.0011453386396169662,0.010766183026134968,0.0035887276753783226
1729696531545457000,2.706456787109375,0.0017561858985573053,-0.0014507622690871358,0.0005344913806766272
1729696531555225000,2.71622509765625,0.0005344913806766272,-0.013667707331478596,-0.004352286923676729
1729696531564993300,2.7259931640625,0.0005344913806766272,-0.006948387715965509,-0.0019088976550847292
1729696531574761200,2.73576123046875,0.0011453386396169662,0.007101099472492933,0.0023670331574976444
1729696531584529400,2.745529296875,0.0011453386396169662,0.012598725035786629,0.004199574701488018
1729696531594297600,2.755297607421875,-0.00007635590736754239,0.005879404954612255,0.0017561858985573053
1729696531604065500,2.7650654296875,0.0005344913806766272,-0.002672456670552492,-0.000687203137204051
1729696531613833700,2.774833740234375,0.0005344913806766272,-0.0051158457063138485,-0.000687203137204051
1729696531623602000,2.784601806640625,0.0005344913806766272,-0.0051158457063138485,-0.00129805039614439
1729696531633369900,2.794369873046875,0.0005344913806766272,-0.0008399150101467967,-0.000687203137204051
1729696531643138000,2.804137939453125,0.0005344913806766272,0.007101099472492933,0.0023670331574976444
1729696531652906200,2.81390625,0.0005344913806766272,0.008322793990373611,0.0035887276753783226
1729696531662674400,2.82367431640625,0.0017561858985573053,-0.002672456670552492,-0.000687203137204051
1729696531672442400,2.8334423828125,0.0011453386396169662,-0.012446013279259205,-0.0031305921729654074
1729696531682210600,2.84321044921875,0.0005344913806766272,-0.006337540224194527,-0.0019088976550847292
1729696531691978800,2.852978759765625,0.0017561858985573053,0.0064902519807219505,0.0017561858985573053
1729696531701746700,2.86274658203125,0.0011453386396169662,0.008322793990373611,0.0029778804164379835
1729696531711515000,2.872514892578125,-0.00007635590736754239,0.0016034740256145597,-0.00007635590736754239
1729696531721283000,2.882282958984375,0.0005344913806766272,-0.002061609411612153,-0.00129805039614439
1729696531731051000,2.892051025390625,0.0005344913806766272,-0.002061609411612153,-0.00007635590736754239
1729696531740819200,2.901819091796875,0.0011453386396169662,-0.002672456670552492,-0.000687203137204051
1729696531750587400,2.91158740234375,0.0011453386396169662,-0.0014507622690871358,-0.000687203137204051
1729696531760355300,2.921355224609375,0.0011453386396169662,0.0034360159188508987,0.0005344913806766272
1729696531770123500,2.93112353515625,0.0017561858985573053,0.0022143214009702206,0.0011453386396169662
1729696531779891700,2.9408916015625,0.0011453386396169662,-0.0038941511884331703,-0.00129805039614439
1729696531789659600,2.95065966796875,-0.000687203137204051,-0.0051158457063138485,-0.0019088976550847292
1729696531799427800,2.960427734375,-0.00007635590736754239,0.00038177953683771193,-0.000687203137204051
1729696531809196000,2.970196044921875,0.0011453386396169662,0.004657710436731577,0.0011453386396169662
1729696531818964200,2.979964111328125,0.0011453386396169662,0.00038177953683771193,-0.000687203137204051
1729696531828732200,2.989732177734375,0.0011453386396169662,-0.0032833039294928312,-0.0019088976550847292
1729696531838500400,2.999500244140625,0.0005344913806766272,-0.0008399150101467967,-0.000687203137204051
1729696531848268500,3.0092685546875,0.0011453386396169662,0.0016034740256145597,-0.00007635590736754239
1729696531858036500,3.019036376953125,0.0011453386396169662,-0.0014507622690871358,-0.000687203137204051
1729696531867804700,3.0288046875,0.0005344913806766272,-0.0008399150101467967,-0.000687203137204051
1729696531877572900,3.03857275390625,0.0011453386396169662,0.0022143214009702206,-0.000687203137204051
1729696531887340800,3.0483408203125,0.0017561858985573053,0.0009926267666742206,-0.0019088976550847292
1729696531897109000,3.05810888671875,0.0005344913806766272,-0.002672456670552492,-0.0037414394319057465
1729696531906877200,3.067877197265625,0.0011453386396169662,-0.0014507622690871358,-0.0019088976550847292
1729696531916645400,3.077645263671875,0.0017561858985573053,0.0028251686599105597,-0.00007635590736754239
1729696531926413300,3.087413330078125,0.0011453386396169662,0.0009926267666742206,-0.00007635590736754239
1729696531936181500,3.097181396484375,-0.00007635590736754239,-0.004504998680204153,-0.0025197449140250683
1729696531945949700,3.10694970703125,-0.00007635590736754239,-0.002672456670552492,-0.00129805039614439
1729696531955717600,3.116717529296875,0.0017561858985573053,0.004046862944960594,0.0023670331574976444
1729696531965485800,3.12648583984375,0.0011453386396169662,0.0034360159188508987,0.0017561858985573053
1729696531975254000,3.13625390625,0.0005344913806766272,-0.002061609411612153,-0.00007635590736754239
1729696531985022000,3.14602197265625,0.0011453386396169662,-0.002061609411612153,-0.000687203137204051
1729696531994790100,3.1557900390625,0.0017561858985573053,0.0009926267666742206,0.0011453386396169662
1729696532004558300,3.165558349609375,0.0005344913806766272,-0.0008399150101467967,0.0011453386396169662
1729696532014326500,3.175326416015625,0.0005344913806766272,-0.0014507622690871358,0.0005344913806766272
1729696532024094500,3.185094482421875,-0.00007635590736754239,0.0028251686599105597,0.0017561858985573053
1729696532033862700,3.194862548828125,0.0005344913806766272,0.005268557462841272,0.0029778804164379835
1729696532043630800,3.204630859375,0.0011453386396169662,0.00038177953683771193,0.0005344913806766272
1729696532053398800,3.214398681640625,-0.00007635590736754239,-0.0051158457063138485,-0.00129805039614439
1729696532063167000,3.2241669921875,0.0005344913806766272,-0.002061609411612153,-0.00007635590736754239
1729696532072935200,3.23393505859375,0.0011453386396169662,0.0028251686599105597,0.0017561858985573053
1729696532082703400,3.243703369140625,0.0011453386396169662,0.0028251686599105597,0.0005344913806766272
1729696532092471300,3.25347119140625,-0.00007635590736754239,-0.00022906772210262716,-0.000687203137204051
1729696532102239500,3.263239501953125,0.0005344913806766272,-0.00022906772210262716,0.0005344913806766272
1729696532112007700,3.273007568359375,0.0011453386396169662,-0.00022906772210262716,-0.00007635590736754239
1729696532121775600,3.282775634765625,0.0005344913806766272,-0.002672456670552492,-0.0019088976550847292
1729696532131543800,3.292543701171875,-0.00007635590736754239,-0.0008399150101467967,-0.0019088976550847292
1729696532141312000,3.30231201171875,-0.00007635590736754239,0.004657710436731577,0.0011453386396169662
1729696532151080000,3.312079833984375,0.0011453386396169662,0.0064902519807219505,0.0011453386396169662
1729696532160848100,3.32184814453125,0.0005344913806766272,-0.0008399150101467967,-0.00129805039614439
1729696532170616300,3.3316162109375,0.0005344913806766272,-0.004504998680204153,-0.0025197449140250683
1729696532180384500,3.341384521484375,0.0011453386396169662,-0.0008399150101467967,-0.00129805039614439
1729696532190152400,3.35115234375,0.0011453386396169662,0.0028251686599105597,0.0005344913806766272
1729696532199920600,3.360920654296875,0.0005344913806766272,0.0016034740256145597,-0.000687203137204051
1729696532209688800,3.370688720703125,0.0011453386396169662,0.0009926267666742206,-0.00007635590736754239
1729696532219456800,3.380456787109375,-0.00007635590736754239,0.0016034740256145597,-0.00007635590736754239
1729696532229225000,3.390224853515625,0.0011453386396169662,-0.0014507622690871358,-0.000687203137204051
1729696532238993200,3.3999931640625,0.0011453386396169662,-0.0032833039294928312,-0.0019088976550847292
1729696532248761300,3.40976123046875,0.0005344913806766272,-0.00022906772210262716,-0.000687203137204051
1729696532258529300,3.419529296875,0.0005344913806766272,0.004046862944960594,0.0005344913806766272
1729696532268297500,3.42929736328125,0.0005344913806766272,0.0028251686599105597,0.0005344913806766272
1729696532278065700,3.439065673828125,0.0005344913806766272,-0.0014507622690871358,-0.000687203137204051
1729696532287833600,3.44883349609375,0.0005344913806766272,-0.002061609411612153,-0.00007635590736754239
1729696532297601800,3.458601806640625,0.0005344913806766272,0.00038177953683771193,0.0005344913806766272
1729696532307370000,3.468369873046875,0.0011453386396169662,0.0009926267666742206,-0.00007635590736754239
1729696532317138200,3.47813818359375,0.0011453386396169662,-0.00022906772210262716,-0.000687203137204051
1729696532326906000,3.487906005859375,0.0011453386396169662,0.0009926267666742206,0.0005344913806766272
1729696532336674300,3.49767431640625,0.0005344913806766272,0.0016034740256145597,0.0005344913806766272
1729696532346442500,3.5074423828125,0.0011453386396169662,-0.0008399150101467967,-0.000687203137204051
1729696532356210700,3.517210693359375,0.0011453386396169662,-0.002672456670552492,-0.000687203137204051
1729696532365978600,3.526978515625,0.0005344913806766272,-0.0008399150101467967,-0.00007635590736754239
1729696532375746800,3.536746826171875,0.0011453386396169662,0.00038177953683771193,-0.00007635590736754239
1729696532385515000,3.546514892578125,0.0011453386396169662,-0.0014507622690871358,-0.000687203137204051
1729696532395283200,3.556283203125,0.0005344913806766272,-0.0014507622690871358,-0.00007635590736754239
1729696532405051100,3.566051025390625,0.0011453386396169662,-0.0008399150101467967,0.0005344913806766272
1729696532414819300,3.5758193359375,0.0011453386396169662,-0.00022906772210262716,0.0005344913806766272
1729696532424587500,3.58558740234375,0.0011453386396169662,-0.0014507622690871358,-0.00007635590736754239
1729696532434355500,3.59535546875,0.0011453386396169662,-0.0008399150101467967,-0.00007635590736754239
1729696532444123600,3.60512353515625,0.0017561858985573053,-0.00022906772210262716,-0.00007635590736754239
1729696532453891800,3.614891845703125,0.0023670331574976444,-0.00022906772210262716,0.0005344913806766272
1729696532463660000,3.624659912109375,0.0011453386396169662,-0.0014507622690871358,-0.00007635590736754239
1729696532473428000,3.634427978515625,0.0011453386396169662,-0.0008399150101467967,0.0005344913806766272
1729696532483196200,3.644196044921875,0.0011453386396169662,-0.00022906772210262716,0.0005344913806766272
1729696532492964400,3.65396435546875,0.0011453386396169662,-0.0008399150101467967,0.0005344913806766272
1729696532502732300,3.663732177734375,0.0005344913806766272,-0.0014507622690871358,-0.00007635590736754239
1729696532512500500,3.67350048828125,0.0005344913806766272,-0.00022906772210262716,-0.00007635590736754239
1729696532522268700,3.6832685546875,0.0005344913806766272,0.0016034740256145597,-0.00007635590736754239
1729696532532036900,3.693036865234375,0.0011453386396169662,0.00038177953683771193,0.0005344913806766272
1729696532541804800,3.7028046875,0.0011453386396169662,-0.0014507622690871358,-0.00007635590736754239
1729696532551573000,3.712572998046875,0.0011453386396169662,-0.0014507622690871358,-0.000687203137204051
1729696532561341200,3.722341064453125,0.0017561858985573053,-0.0008399150101467967,-0.00007635590736754239
1729696532571109400,3.732109375,0.0005344913806766272,-0.00022906772210262716,-0.00007635590736754239
1729696532580877300,3.741877197265625,0.0017561858985573053,-0.00022906772210262716,-0.00007635590736754239
1729696532590645500,3.7516455078125,0.0017561858985573053,0.0009926267666742206,-0.00007635590736754239
1729696532600413700,3.76141357421875,0.0011453386396169662,-0.00022906772210262716,-0.00007635590736754239
1729696532610182000,3.771181884765625,0.0017561858985573053,-0.002061609411612153,-0.000687203137204051
1729696532619949800,3.78094970703125,0.0017561858985573053,-0.002061609411612153,-0.00007635590736754239
1729696532629718000,3.790718017578125,0.0011453386396169662,0.00038177953683771193,-0.000687203137204051
1729696532639486200,3.800486328125,0.0011453386396169662,0.0034360159188508987,0.0005344913806766272
1729696532649254400,3.81025439453125,0.0005344913806766272,0.0016034740256145597,-0.00007635590736754239
1729696532659022300,3.820022216796875,0.0005344913806766272,-0.0008399150101467967,-0.000687203137204051
1729696532668790500,3.82979052734375,0.0005344913806766272,-0.002061609411612153,-0.00007635590736754239
1729696532678558700,3.839558837890625,0.0005344913806766272,-0.0008399150101467967,-0.00007635590736754239
1729696532688326700,3.84932666015625,0.0005344913806766272,-0.00022906772210262716,-0.00007635590736754239
1729696532698094800,3.8590947265625,0.0011453386396169662,0.0009926267666742206,-0.00007635590736754239
1729696532707863000,3.868863037109375,0.0011453386396169662,0.0016034740256145597,0.0005344913806766272
1729696532717631200,3.87863134765625,0.0005344913806766272,0.00038177953683771193,0.0005344913806766272
1729696532727399200,3.888399169921875,0.0011453386396169662,-0.0014507622690871358,-0.00007635590736754239
1729696532737167400,3.89816748046875,0.0011453386396169662,-0.0014507622690871358,-0.00007635590736754239
1729696532746935600,3.907935546875,0.0011453386396169662,-0.00022906772210262716,-0.00007635590736754239
1729696532756703700,3.917703857421875,0.0011453386396169662,0.0016034740256145597,0.0005344913806766272
1729696532766471700,3.9274716796875,0.0005344913806766272,0.0009926267666742206,0.0005344913806766272
1729696532776239900,3.937239990234375,0.0005344913806766272,-0.00022906772210262716,-0.00007635590736754239
1729696532786008000,3.947008056640625,0.0011453386396169662,-0.0008399150101467967,-0.000687203137204051
1729696532795776300,3.9567763671875,0.0011453386396169662,-0.0014507622690871358,-0.00129805039614439
1729696532805544400,3.96654443359375,0.0005344913806766272,-0.0014507622690871358,-0.00007635590736754239
1729696532815312400,3.9763125,0.0005344913806766272,0.00038177953683771193,-0.00007635590736754239
1729696532825080600,3.98608056640625,0.0005344913806766272,0.0016034740256145597,0.0005344913806766272
1729696532834848800,3.995848876953125,-0.00007635590736754239,0.0009926267666742206,0.0011453386396169662
1729696532844617000,4.005616943359375,0.0005344913806766272,-0.00022906772210262716,-0.00007635590736754239
1729696532854385000,4.015385009765625,0.0011453386396169662,-0.00022906772210262716,-0.00007635590736754239
1729696532864153000,4.025153076171875,0.0011453386396169662,-0.00022906772210262716,-0.000687203137204051
1729696532873921300,4.03492138671875,0.0005344913806766272,-0.0008399150101467967,-0.000687203137204051
1729696532883689200,4.044689208984375,0.0005344913806766272,-0.00022906772210262716,-0.00007635590736754239
1729696532893457400,4.05445751953125,0.0011453386396169662,0.0016034740256145597,-0.00007635590736754239
1729696532903225600,4.0642255859375,0.0011453386396169662,0.0009926267666742206,-0.00007635590736754239
1729696532912993800,4.073993896484375,0.0011453386396169662,-0.002061609411612153,-0.000687203137204051
1729696532922761700,4.08376171875,0.0011453386396169662,-0.0014507622690871358,-0.000687203137204051
1729696532932530000,4.093530029296875,0.0011453386396169662,-0.0014507622690871358,-0.00007635590736754239
1729696532942298000,4.103298095703125,0.0005344913806766272,0.0022143214009702206,0.0011453386396169662
1729696532952066300,4.11306640625,0.0005344913806766272,0.004046862944960594,0.0011453386396169662
1729696532961834500,4.12283447265625,0.0005344913806766272,0.0022143214009702206,0.0005344913806766272
1729696532971602400,4.1326025390625,0.0005344913806766272,-0.0008399150101467967,0.0005344913806766272
1729696532981370600,4.14237060546875,0.0011453386396169662,-0.002672456670552492,-0.000687203137204051
1729696532991138800,4.152138916015625,0.0011453386396169662,-0.0008399150101467967,-0.000687203137204051
1729696533000907000,4.161906982421875,0.0011453386396169662,-0.0014507622690871358,-0.00007635590736754239
1729696533010675000,4.171675048828125,0.0017561858985573053,-0.00022906772210262716,-0.00007635590736754239
1729696533020443100,4.181443115234375,0.0011453386396169662,-0.00022906772210262716,-0.000687203137204051
1729696533030211300,4.19121142578125,0.0005344913806766272,-0.0014507622690871358,0.0005344913806766272
1729696533039979500,4.2009794921875,0.0011453386396169662,-0.002061609411612153,-0.000687203137204051
1729696533049747500,4.21074755859375,0.0011453386396169662,-0.0014507622690871358,-0.000687203137204051
1729696533059515600,4.220515625,0.0011453386396169662,-0.0014507622690871358,-0.000687203137204051
1729696533069283800,4.230283935546875,0.0011453386396169662,-0.00022906772210262716,-0.00007635590736754239
1729696533079052000,4.240052001953125,0.0011453386396169662,0.0009926267666742206,-0.00007635590736754239
1729696533088820000,4.249820068359375,0.0005344913806766272,0.0009926267666742206,-0.00007635590736754239
1729696533098588200,4.259588134765625,0.0005344913806766272,0.0009926267666742206,0.0011453386396169662
1729696533108356400,4.2693564453125,0.0011453386396169662,0.0009926267666742206,0.0005344913806766272
1729696533118124500,4.27912451171875,0.0005344913806766272,-0.0008399150101467967,-0.00007635590736754239
1729696533127892700,4.288892822265625,0.0011453386396169662,-0.002061609411612153,-0.000687203137204051
1729696533137660700,4.29866064453125,0.0011453386396169662,0.0016034740256145597,-0.00007635590736754239
1729696533147428900,4.308428955078125,0.0005344913806766272,0.0034360159188508987,0.0005344913806766272
1729696533157197000,4.318197021484375,0.0005344913806766272,0.0016034740256145597,-0.00007635590736754239
1729696533166965000,4.327965087890625,0.0011453386396169662,-0.002061609411612153,-0.000687203137204051
1729696533176733200,4.337733154296875,-0.00007635590736754239,-0.002672456670552492,-0.000687203137204051
1729696533186501400,4.34750146484375,0.0005344913806766272,-0.0014507622690871358,-0.000687203137204051
1729696533196269600,4.35726953125,0.0011453386396169662,-0.00022906772210262716,-0.000687203137204051
1729696533206037800,4.367037841796875,0.0005344913806766272,0.00038177953683771193,-0.00007635590736754239
1729696533215805700,4.3768056640625,0.0011453386396169662,0.00038177953683771193,0.0005344913806766272
1729696533225574000,4.386573974609375,0.0011453386396169662,-0.0014507622690871358,-0.00007635590736754239
1729696533235342000,4.396342041015625,0.0005344913806766272,-0.0032833039294928312,-0.00129805039614439
1729696533245110300,4.4061103515625,0.0011453386396169662,-0.0032833039294928312,-0.000687203137204051
1729696533254878500,4.41587841796875,0.0017561858985573053,-0.00022906772210262716,0.0005344913806766272
1729696533264646400,4.425646484375,0.0011453386396169662,0.0034360159188508987,0.0005344913806766272
1729696533274414600,4.43541455078125,0.0011453386396169662,0.0034360159188508987,0.0011453386396169662
1729696533284182800,4.445182861328125,0.0011453386396169662,0.00038177953683771193,-0.00007635590736754239
1729696533293951000,4.454950927734375,0.0011453386396169662,-0.0014507622690871358,-0.000687203137204051
1729696533303719000,4.464718994140625,0.0011453386396169662,-0.0008399150101467967,-0.00007635590736754239
1729696533313487000,4.474487060546875,0.0005344913806766272,0.0016034740256145597,0.0005344913806766272
1729696533323255300,4.48425537109375,-0.00007635590736754239,0.0022143214009702206,0.0005344913806766272
1729696533333023500,4.4940234375,0.0005344913806766272,0.0009926267666742206,-0.00007635590736754239
1729696533342791700,4.503791748046875,0.0011453386396169662,-0.0014507622690871358,-0.00129805039614439
1729696533352559600,4.5135595703125,0.0011453386396169662,-0.002061609411612153,-0.00007635590736754239
1729696533362327800,4.523327880859375,-0.00007635590736754239,-0.00022906772210262716,0.0005344913806766272
1729696533372096000,4.533095947265625,0.0005344913806766272,0.0022143214009702206,0.0005344913806766272
1729696533381864200,4.5428642578125,0.0011453386396169662,0.0016034740256145597,0.0011453386396169662
1729696533391632100,4.552632080078125,0.0011453386396169662,0.00038177953683771193,0.0005344913806766272
1729696533401400300,4.562400390625,0.0017561858985573053,-0.0008399150101467967,-0.000687203137204051
1729696533411168500,4.57216845703125,0.0011453386396169662,-0.0014507622690871358,-0.00007635590736754239
1729696533420936700,4.581936767578125,0.0005344913806766272,0.00038177953683771193,0.0005344913806766272
1729696533430705000,4.591704833984375,0.0005344913806766272,0.0009926267666742206,0.0005344913806766272
1729696533440472800,4.601472900390625,0.0005344913806766272,-0.00022906772210262716,-0.00007635590736754239
1729696533450241000,4.611240966796875,0.0005344913806766272,-0.00022906772210262716,-0.00007635590736754239
1729696533460009200,4.62100927734375,0.0011453386396169662,0.00038177953683771193,-0.00007635590736754239
1729696533469777400,4.63077734375,0.0011453386396169662,-0.0008399150101467967,-0.00007635590736754239
1729696533479545600,4.640545654296875,0.0005344913806766272,-0.0014507622690871358,-0.000687203137204051
1729696533489313500,4.6503134765625,0.0011453386396169662,-0.00022906772210262716,0.0005344913806766272
1729696533499081700,4.660081787109375,0.0011453386396169662,0.0009926267666742206,0.0011453386396169662
1729696533508850000,4.669849853515625,0.0011453386396169662,0.0009926267666742206,0.0005344913806766272
1729696533518618000,4.6796181640625,0.0005344913806766272,-0.0014507622690871358,-0.00007635590736754239
1729696533528386000,4.689385986328125,0.0005344913806766272,-0.002061609411612153,-0.00129805039614439
1729696533538154200,4.699154296875,0.0011453386396169662,-0.002672456670552492,-0.00007635590736754239
1729696533547922400,4.70892236328125,0.0011453386396169662,-0.0008399150101467967,-0.00007635590736754239
1729696533557690600,4.718690673828125,0.0011453386396169662,-0.0008399150101467967,-0.00007635590736754239
1729696533567458800,4.728458740234375,0.0005344913806766272,0.00038177953683771193,-0.00007635590736754239
1729696533577226800,4.738226806640625,0.0011453386396169662,-0.0008399150101467967,-0.00007635590736754239
1729696533586995000,4.747994873046875,0.0005344913806766272,0.00038177953683771193,-0.000687203137204051
1729696533596763100,4.75776318359375,-0.00007635590736754239,0.00038177953683771193,-0.000687203137204051
1729696533606531300,4.76753125,0.0005344913806766272,-0.00022906772210262716,-0.00007635590736754239
1729696533616299500,4.777299560546875,0.0011453386396169662,-0.00022906772210262716,-0.00007635590736754239
1729696533626067500,4.7870673828125,0.0011453386396169662,-0.00022906772210262716,-0.00007635590736754239
1729696533635835600,4.796835693359375,0.0011453386396169662,-0.0008399150101467967,-0.00007635590736754239
1729696533645603800,4.806603759765625,0.0011453386396169662,-0.0008399150101467967,-0.000687203137204051
1729696533655372000,4.8163720703125,-0.00007635590736754239,-0.00022906772210262716,-0.00007635590736754239
1729696533665140200,4.82614013671875,0.0005344913806766272,-0.0008399150101467967,-0.00007635590736754239
1729696533674908200,4.835908203125,0.0005344913806766272,-0.0014507622690871358,-0.00007635590736754239
1729696533684676400,4.84567626953125,0.0011453386396169662,-0.00022906772210262716,-0.00007635590736754239
1729696533694444500,4.855444580078125,0.0011453386396169662,-0.00022906772210262716,-0.00007635590736754239
1729696533704212700,4.865212646484375,0.0011453386396169662,-0.0014507622690871358,-0.00007635590736754239
1729696533713980700,4.874980712890625,0.0011453386396169662,-0.0008399150101467967,0.0005344913806766272
1729696533723748900,4.884748779296875,0.0011453386396169662,-0.0008399150101467967,0.0005344913806766272
1729696533733517000,4.89451708984375,0.0005344913806766272,-0.0014507622690871358,-0.00007635590736754239
1729696533743285200,4.90428515625,0.0011453386396169662,-0.002061609411612153,-0.00007635590736754239
1729696533753053400,4.914053466796875,0.0005344913806766272,-0.0008399150101467967,0.0005344913806766272
1729696533762821600,4.923821533203125,0.0005344913806766272,-0.00022906772210262716,0.0005344913806766272
1729696533772589600,4.933589599609375,0.0011453386396169662,-0.00022906772210262716,0.0005344913806766272
1729696533782357800,4.943357666015625,0.0011453386396169662,-0.0008399150101467967,0.0011453386396169662
1729696533792126000,4.9531259765625,0.0011453386396169662,-0.002061609411612153,0.0005344913806766272
1729696533801894100,4.96289404296875,0.0011453386396169662,-0.002672456670552492,-0.000687203137204051
1729696533811662300,4.972662353515625,0.0011453386396169662,-0.0008399150101467967,-0.00007635590736754239
1729696533821430300,4.98243017578125,0.0017561858985573053,0.00038177953683771193,0.0005344913806766272
1729696533831198500,4.992198486328125,0.0011453386396169662,0.00038177953683771193,0.0005344913806766272
1729696533840966700,5.001966552734375,0.0005344913806766272,0.00038177953683771193,0.0005344913806766272
1729696533850734800,5.01173486328125,0.0011453386396169662,0.0009926267666742206,0.0005344913806766272
1729696533860503000,5.0215029296875,0.0005344913806766272,-0.0014507622690871358,-0.00007635590736754239
1729696533870271000,5.03127099609375,0.0005344913806766272,-0.0008399150101467967,-0.00007635590736754239
1729696533880039200,5.0410390625,0.0005344913806766272,0.0016034740256145597,0.0005344913806766272
1729696533889807400,5.050807373046875,0.0005344913806766272,0.0022143214009702206,-0.00007635590736754239
1729696533899575600,5.060575439453125,0.0011453386396169662,0.00038177953683771193,-0.00007635590736754239
1729696533909343700,5.07034375,0.0005344913806766272,-0.0014507622690871358,-0.00129805039614439
1729696533919111700,5.080111572265625,0.0011453386396169662,-0.002061609411612153,-0.0019088976550847292
1729696533928879900,5.0898798828125,0.0017561858985573053,-0.00022906772210262716,-0.000687203137204051
1729696533938648000,5.09964794921875,0.0011453386396169662,0.0009926267666742206,-0.00007635590736754239
1729696533948416300,5.109416259765625,0.0011453386396169662,0.0016034740256145597,-0.00007635590736754239
1729696533958184400,5.119184326171875,0.0011453386396169662,0.0022143214009702206,-0.00007635590736754239
1729696533967952400,5.128952392578125,0.0017561858985573053,0.0016034740256145597,-0.00007635590736754239
1729696533977720600,5.138720458984375,0.0005344913806766272,-0.0014507622690871358,-0.00007635590736754239
1729696533987488800,5.14848876953125,0.0011453386396169662,-0.0008399150101467967,-0.00007635590736754239
1729696533997257000,5.158257080078125,0.0011453386396169662,0.00038177953683771193,0.0005344913806766272
1729696534007025200,5.168025146484375,0.0005344913806766272,0.0016034740256145597,-0.00007635590736754239
1729696534016793300,5.17779345703125,0.0011453386396169662,0.00038177953683771193,-0.00007635590736754239
1729696534026561300,5.187561279296875,0.0017561858985573053,0.0009926267666742206,-0.00007635590736754239
1729696534036329500,5.19732958984375,0.0011453386396169662,0.0009926267666742206,-0.00007635590736754239
1729696534046097700,5.20709765625,0.0005344913806766272,-0.0008399150101467967,-0.00007635590736754239
1729696534055865900,5.216865966796875,0.0005344913806766272,-0.00022906772210262716,0.0005344913806766272
1729696534065634000,5.226634033203125,0.0005344913806766272,0.0009926267666742206,0.0005344913806766272
1729696534075402000,5.236402099609375,0.0005344913806766272,0.0016034740256145597,0.0011453386396169662
1729696534085170200,5.246170166015625,0.0011453386396169662,0.0009926267666742206,0.0005344913806766272
1729696534094938400,5.2559384765625,-0.00007635590736754239,-0.0008399150101467967,-0.00007635590736754239
1729696534104706600,5.26570654296875,0.0005344913806766272,-0.0008399150101467967,-0.00007635590736754239
1729696534114474800,5.275474853515625,0.0011453386396169662,-0.002061609411612153,-0.00129805039614439
1729696534124243000,5.285242919921875,0.0005344913806766272,-0.002061609411612153,-0.000687203137204051
1729696534134011000,5.295010986328125,0.0011453386396169662,0.00038177953683771193,-0.00007635590736754239
1729696534143779000,5.304779052734375,0.0011453386396169662,0.0016034740256145597,0.0005344913806766272
1729696534153547300,5.31454736328125,0.0005344913806766272,0.0016034740256145597,0.0005344913806766272
1729696534163315500,5.3243154296875,0.0005344913806766272,-0.0014507622690871358,-0.00007635590736754239
1729696534173083600,5.334083740234375,0.0005344913806766272,-0.00022906772210262716,-0.00007635590736754239
1729696534182851600,5.3438515625,0.0011453386396169662,0.0016034740256145597,0.0005344913806766272
1729696534192619800,5.353619873046875,0.0011453386396169662,0.0022143214009702206,0.0005344913806766272
1729696534202388000,5.363387939453125,0.0005344913806766272,-0.0008399150101467967,-0.000687203137204051
1729696534212156200,5.37315625,0.0005344913806766272,-0.002672456670552492,-0.00129805039614439
1729696534221924400,5.38292431640625,0.0005344913806766272,-0.0008399150101467967,-0.000687203137204051
1729696534231692300,5.3926923828125,0.0011453386396169662,0.0009926267666742206,0.0005344913806766272
1729696534241460500,5.40246044921875,0.0005344913806766272,0.00038177953683771193,-0.00007635590736754239
1729696534251228700,5.412228759765625,0.0005344913806766272,-0.00022906772210262716,-0.00129805039614439
1729696534260996900,5.421996826171875,0.0011453386396169662,0.00038177953683771193,-0.00007635590736754239
1729696534270765000,5.43176513671875,0.0011453386396169662,-0.00022906772210262716,-0.00007635590736754239
1729696534280533200,5.441533203125,0.0011453386396169662,-0.002061609411612153,-0.000687203137204051
1729696534290301400,5.451301513671875,0.0005344913806766272,-0.0008399150101467967,-0.00007635590736754239
1729696534300069400,5.4610693359375,0.0011453386396169662,-0.0008399150101467967,-0.00007635590736754239
1729696534309837600,5.470837646484375,0.0005344913806766272,-0.0008399150101467967,0.0005344913806766272
1729696534319605800,5.480605712890625,0.0011453386396169662,-0.002672456670552492,-0.000687203137204051
1729696534329374000,5.4903740234375,0.0005344913806766272,-0.002061609411612153,-0.000687203137204051
1729696534339142100,5.50014208984375,0.0017561858985573053,0.00038177953683771193,-0.00007635590736754239
1729696534348910300,5.509910400390625,0.0011453386396169662,0.0028251686599105597,0.0011453386396169662
1729696534358678300,5.51967822265625,0.0005344913806766272,0.0016034740256145597,0.0011453386396169662
1729696534368446500,5.529446533203125,0.0011453386396169662,-0.00022906772210262716,-0.00007635590736754239
1729696534378214700,5.539214599609375,0.0011453386396169662,-0.002672456670552492,-0.000687203137204051
1729696534387982800,5.54898291015625,0.0011453386396169662,-0.002061609411612153,0.0005344913806766272
1729696534397751000,5.5587509765625,0.0011453386396169662,0.00038177953683771193,0.0011453386396169662
1729696534407519000,5.56851904296875,0.0005344913806766272,0.0016034740256145597,0.0011453386396169662
1729696534417287200,5.578287109375,0.0005344913806766272,0.00038177953683771193,-0.00007635590736754239
1729696534427055400,5.588055419921875,0.0005344913806766272,-0.0014507622690871358,-0.00007635590736754239
1729696534436823600,5.597823486328125,0.0005344913806766272,-0.0008399150101467967,0.0005344913806766272
1729696534446591700,5.607591796875,0.0017561858985573053,-0.00022906772210262716,0.0005344913806766272
1729696534456360000,5.61735986328125,0.0017561858985573053,-0.0014507622690871358,0.0005344913806766272
1729696534466128000,5.6271279296875,0.0011453386396169662,0.0009926267666742206,-0.00007635590736754239
1729696534475896000,5.63689599609375,0.0011453386396169662,-0.00022906772210262716,0.0005344913806766272
1729696534485664300,5.646664306640625,0.0017561858985573053,-0.00022906772210262716,-0.00007635590736754239
1729696534495432400,5.656432373046875,0.0011453386396169662,0.00038177953683771193,0.0005344913806766272
1729696534505200600,5.66620068359375,0.0011453386396169662,-0.0008399150101467967,0.0005344913806766272
1729696534514968800,5.67596875,0.0017561858985573053,-0.002672456670552492,-0.00007635590736754239
1729696534524736800,5.68573681640625,0.0011453386396169662,-0.0032833039294928312,-0.000687203137204051
1729696534534505000,5.6955048828125,0.0011453386396169662,0.00038177953683771193,0.0011453386396169662
1729696534544273200,5.705273193359375,0.0017561858985573053,0.0009926267666742206,0.0011453386396169662
1729696534554041300,5.715041259765625,0.0023670331574976444,-0.0008399150101467967,0.0005344913806766272
1729696534563809500,5.7248095703125,0.0017561858985573053,-0.0038941511884331703,-0.00007635590736754239
1729696534573577700,5.73457763671875,0.0023670331574976444,-0.004504998680204153,-0.00007635590736754239
1729696534583345700,5.744345703125,0.0017561858985573053,-0.0032833039294928312,-0.00007635590736754239
1729696534593113900,5.75411376953125,0.0011453386396169662,-0.00022906772210262716,0.0011453386396169662
1729696534602882000,5.763882080078125,0.0017561858985573053,0.0022143214009702206,0.0023670331574976444
1729696534612650200,5.773650146484375,0.0011453386396169662,0.0016034740256145597,0.0011453386396169662
1729696534622418400,5.78341845703125,0.0011453386396169662,-0.002061609411612153,0.0005344913806766272
1729696534632186600,5.7931865234375,0.0011453386396169662,-0.004504998680204153,-0.000687203137204051
1729696534641954800,5.802954833984375,0.0017561858985573053,-0.0032833039294928312,-0.000687203137204051
1729696534651722800,5.81272265625,0.0017561858985573053,-0.00022906772210262716,0.0005344913806766272
1729696534661491000,5.822490966796875,0.0005344913806766272,0.0022143214009702206,0.0011453386396169662
1729696534671259100,5.832259033203125,0.0011453386396169662,0.0022143214009702206,0.0011453386396169662
1729696534681027300,5.84202734375,0.0011453386396169662,-0.0008399150101467967,0.0005344913806766272
1729696534690795500,5.85179541015625,0.0017561858985573053,-0.0038941511884331703,-0.000687203137204051
1729696534700563700,5.861563720703125,0.0011453386396169662,-0.0038941511884331703,0.0005344913806766272
1729696534710332000,5.871331787109375,0.0005344913806766272,-0.00022906772210262716,-0.00007635590736754239
1729696534720099800,5.881099853515625,0.0017561858985573053,0.0034360159188508987,0.0011453386396169662
1729696534729868000,5.890867919921875,0.0017561858985573053,0.00038177953683771193,-0.00007635590736754239
1729696534739636200,5.90063623046875,0.0017561858985573053,-0.0014507622690871358,0.0005344913806766272
1729696534749404400,5.910404296875,0.0005344913806766272,-0.002061609411612153,-0.00007635590736754239
1729696534759172600,5.920172607421875,0.0005344913806766272,-0.0032833039294928312,-0.000687203137204051
1729696534768940800,5.92994091796875,0.0005344913806766272,-0.0038941511884331703,-0.00129805039614439
1729696534778708700,5.939708740234375,0.0005344913806766272,0.00038177953683771193,0.0005344913806766272
1729696534788477000,5.949476806640625,0.0005344913806766272,0.005268557462841272,0.0017561858985573053
1729696534798245000,5.9592451171875,0.0005344913806766272,0.004046862944960594,0.0011453386396169662
1729696534808013300,5.969013427734375,0.0005344913806766272,-0.002061609411612153,-0.000687203137204051
1729696534817781500,5.978781494140625,0.0005344913806766272,-0.006948387715965509,-0.0019088976550847292
1729696534827549700,5.9885498046875,0.0005344913806766272,-0.005726693198084831,-0.00129805039614439
1729696534837318000,5.99831787109375,0.0011453386396169662,-0.0008399150101467967,-0.000687203137204051
1729696534847085800,6.0080859375,0.0005344913806766272,0.004657710436731577,0.0017561858985573053
1729696534856854000,6.01785400390625,0.0011453386396169662,0.005268557462841272,0.0023670331574976444
1729696534866622200,6.027622314453125,0.0011453386396169662,0.0009926267666742206,0.0011453386396169662
1729696534876390400,6.037390380859375,0.0017561858985573053,-0.005726693198084831,-0.000687203137204051
1729696534886158600,6.04715869140625,0.0011453386396169662,-0.006337540224194527,-0.000687203137204051
1729696534895926800,6.0569267578125,0.0005344913806766272,-0.0008399150101467967,-0.00007635590736754239
1729696534905695000,6.066695068359375,0.0011453386396169662,0.005879404954612255,0.0029778804164379835
1729696534915463000,6.076462890625,-0.00007635590736754239,0.005268557462841272,0.0029778804164379835
1729696534925231000,6.086231201171875,0.0011453386396169662,-0.0008399150101467967,0.0011453386396169662
1729696534934999300,6.095999267578125,0.0011453386396169662,-0.0051158457063138485,-0.000687203137204051
1729696534944767500,6.105767578125,0.0011453386396169662,-0.0038941511884331703,-0.000687203137204051
1729696534954535700,6.11553564453125,0.0017561858985573053,0.0016034740256145597,0.0017561858985573053
1729696534964304000,6.125303955078125,0.0011453386396169662,0.004046862944960594,0.0023670331574976444
1729696534974072000,6.135072021484375,0.0011453386396169662,0.0028251686599105597,0.0017561858985573053
1729696534983840000,6.144840087890625,0.0011453386396169662,-0.002672456670552492,-0.000687203137204051
1729696534993608200,6.154608154296875,0.0011453386396169662,-0.006948387715965509,-0.00129805039614439
1729696535003376400,6.16437646484375,0.0011453386396169662,-0.004504998680204153,-0.00007635590736754239
1729696535013144600,6.17414453125,0.0023670331574976444,0.0028251686599105597,0.0017561858985573053
1729696535022912800,6.183912841796875,0.0017561858985573053,0.0028251686599105597,0.0017561858985573053
1729696535032681000,6.193680908203125,0.0011453386396169662,-0.002061609411612153,-0.00007635590736754239
1729696535042449000,6.203448974609375,0.0011453386396169662,-0.0051158457063138485,-0.0019088976550847292
1729696535052217000,6.213217041015625,0.0011453386396169662,-0.00022906772210262716,-0.000687203137204051
1729696535061985300,6.2229853515625,0.0017561858985573053,0.0028251686599105597,0.0011453386396169662
1729696535071753500,6.23275341796875,0.0011453386396169662,0.0028251686599105597,0.0011453386396169662
1729696535081521700,6.242521728515625,0.0011453386396169662,-0.00022906772210262716,0.0005344913806766272
1729696535091289900,6.252289794921875,0.0017561858985573053,0.0022143214009702206,0.0011453386396169662
1729696535101058000,6.26205810546875,0.0017561858985573053,0.0009926267666742206,0.0011453386396169662
1729696535110826000,6.271825927734375,0.0005344913806766272,-0.002061609411612153,-0.00129805039614439
1729696535120594200,6.28159423828125,0.0005344913806766272,-0.002061609411612153,-0.000687203137204051
1729696535130362400,6.2913623046875,0.0011453386396169662,0.0022143214009702206,0.0005344913806766272
1729696535140130600,6.301130615234375,0.0017561858985573053,0.00038177953683771193,-0.000687203137204051
1729696535149898800,6.310898681640625,-0.00007635590736754239,-0.002061609411612153,-0.0019088976550847292
1729696535159667000,6.3206669921875,0.0011453386396169662,-0.0008399150101467967,-0.00129805039614439
1729696535169435100,6.33043505859375,-0.00007635590736754239,0.0028251686599105597,0.0005344913806766272
1729696535179203300,6.340203369140625,-0.00007635590736754239,0.0009926267666742206,-0.00007635590736754239
1729696535188971300,6.34997119140625,0.0005344913806766272,-0.0038941511884331703,-0.0019088976550847292
1729696535198739500,6.359739501953125,0.0005344913806766272,-0.00022906772210262716,-0.000687203137204051
1729696535208507600,6.369507568359375,0.0005344913806766272,0.004657710436731577,0.0005344913806766272
1729696535218275800,6.37927587890625,0.0005344913806766272,0.0016034740256145597,-0.00007635590736754239
1729696535228044000,6.3890439453125,0.0011453386396169662,-0.0032833039294928312,-0.0019088976550847292
1729696535237812200,6.398812255859375,0.0017561858985573053,-0.002672456670552492,-0.00129805039614439
1729696535247580400,6.408580322265625,0.0011453386396169662,0.0016034740256145597,-0.00007635590736754239
1729696535257348600,6.4183486328125,0.0005344913806766272,0.0016034740256145597,0.0005344913806766272
1729696535267116500,6.428116455078125,0.0017561858985573053,-0.00022906772210262716,-0.000687203137204051
1729696535276884700,6.437884765625,0.0017561858985573053,-0.0014507622690871358,-0.000687203137204051
1729696535286653000,6.44765283203125,0.0011453386396169662,-0.002672456670552492,-0.00007635590736754239
1729696535296421000,6.457421142578125,0.0017561858985573053,-0.002061609411612153,-0.000687203137204051
1729696535306189300,6.467189208984375,0.0005344913806766272,-0.0008399150101467967,-0.00007635590736754239
1729696535315957500,6.47695751953125,0.0005344913806766272,0.0022143214009702206,0.0005344913806766272
1729696535325725700,6.4867255859375,0.0011453386396169662,0.0016034740256145597,-0.00007635590736754239
1729696535335493600,6.49649365234375,0.0005344913806766272,-0.002061609411612153,-0.000687203137204051
1729696535345261800,6.50626171875,-0.00007635590736754239,-0.0038941511884331703,-0.0019088976550847292
1729696535355030000,6.516030029296875,-0.00007635590736754239,0.00038177953683771193,0.0005344913806766272
1729696535364798200,6.525798095703125,-0.00007635590736754239,0.0064902519807219505,0.0023670331574976444
1729696535374566400,6.53556640625,-0.00007635590736754239,0.005879404954612255,0.0023670331574976444
1729696535384334600,6.54533447265625,0.0005344913806766272,-0.002061609411612153,-0.000687203137204051
1729696535394102800,6.555102783203125,0.0005344913806766272,-0.005726693198084831,-0.000687203137204051
1729696535403871000,6.56487109375,0.0017561858985573053,-0.0038941511884331703,-0.00007635590736754239
1729696535413639000,6.574638916015625,0.0011453386396169662,-0.002061609411612153,-0.00007635590736754239
1729696535423407000,6.584406982421875,0.0005344913806766272,-0.002672456670552492,-0.00007635590736754239
1729696535433175300,6.59417529296875,0.0011453386396169662,-0.0014507622690871358,0.0005344913806766272
1729696535442943500,6.603943603515625,0.0011453386396169662,0.0022143214009702206,0.0017561858985573053
1729696535452711700,6.613711669921875,0.0017561858985573053,0.004657710436731577,0.0023670331574976444
1729696535462480000,6.62347998046875,0.0017561858985573053,-0.00022906772210262716,0.0017561858985573053
1729696535472248000,6.633248046875,0.0011453386396169662,-0.008780929259955883,-0.000687203137204051
1729696535482016300,6.643016357421875,0.0005344913806766272,-0.009391776286065578,-0.0019088976550847292
1729696535491784400,6.652784423828125,0.0005344913806766272,-0.0008399150101467967,0.0005344913806766272
1729696535501552400,6.662552490234375,0.0017561858985573053,0.008322793990373611,0.004199574701488018
1729696535511320600,6.672320556640625,0.0011453386396169662,0.008322793990373611,0.004810422193259001
1729696535521088800,6.6820888671875,0.0011453386396169662,0.00038177953683771193,0.0011453386396169662
1729696535530857000,6.69185693359375,0.0011453386396169662,-0.008780929259955883,-0.00129805039614439
1729696535540625200,6.701625244140625,0.0005344913806766272,-0.010002624243497849,-0.0019088976550847292
1729696535550393300,6.711393310546875,0.0005344913806766272,-0.002061609411612153,-0.00007635590736754239
1729696535560161500,6.72116162109375,0.0011453386396169662,0.010155336000025272,0.0035887276753783226
1729696535569929700,6.7309296875,0.0011453386396169662,0.01382041908800602,0.005421269219368696
1729696535579697700,6.74069775390625,0.0017561858985573053,0.0022143214009702206,0.0011453386396169662
1729696535589465900,6.7504658203125,0.0011453386396169662,-0.0130568603053689,-0.0037414394319057465
1729696535599234000,6.760234130859375,0.0017561858985573053,-0.013667707331478596,-0.0037414394319057465
1729696535609002200,6.770002197265625,0.0011453386396169662,-0.0014507622690871358,-0.000687203137204051
1729696535618770400,6.7797705078125,0.0011453386396169662,0.008933641016483307,0.0023670331574976444
1729696535628538600,6.78953857421875,0.0005344913806766272,0.008322793990373611,0.0029778804164379835
1729696535638306800,6.799306884765625,0.0005344913806766272,-0.0008399150101467967,-0.000687203137204051
1729696535648075000,6.809074951171875,0.0017561858985573053,-0.008780929259955883,-0.0019088976550847292
1729696535657843200,6.81884326171875,0.0017561858985573053,-0.010002624243497849,-0.0031305921729654074
1729696535667611100,6.828611083984375,0.0011453386396169662,-0.002672456670552492,-0.000687203137204051
1729696535677379300,6.83837939453125,0.0005344913806766272,0.009544488042593002,0.0023670331574976444
1729696535687147500,6.8481474609375,0.0005344913806766272,0.011377030052244663,0.0035887276753783226
1729696535696915700,6.857915771484375,-0.00007635590736754239,0.0016034740256145597,-0.00007635590736754239
1729696535706684000,6.867683837890625,0.0011453386396169662,-0.008170082233846188,-0.0037414394319057465
1729696535716452000,6.8774521484375,-0.00007635590736754239,-0.008780929259955883,-0.0031305921729654074
1729696535726220300,6.88722021484375,0.0005344913806766272,-0.0038941511884331703,-0.0019088976550847292
1729696535735988500,6.896988525390625,0.0011453386396169662,0.004046862944960594,-0.000687203137204051
1729696535745756700,6.906756591796875,0.0005344913806766272,0.007101099472492933,-0.00007635590736754239
1729696535755524900,6.91652490234375,0.0011453386396169662,0.004657710436731577,0.0005344913806766272
1729696535765292800,6.926292724609375,0.0011453386396169662,-0.002061609411612153,-0.0019088976550847292
1729696535775061000,6.93606103515625,0.0011453386396169662,-0.008780929259955883,-0.004352286923676729
1729696535784829200,6.9458291015625,0.0005344913806766272,-0.006948387715965509,-0.0037414394319057465
1729696535794597400,6.955597412109375,0.0011453386396169662,0.004046862944960594,-0.000687203137204051
1729696535804365600,6.965365478515625,0.0005344913806766272,0.011987877078354359,0.0005344913806766272
1729696535814133800,6.9751337890625,0.0005344913806766272,0.008933641016483307,0.0011453386396169662
1729696535823902000,6.98490185546875,0.0005344913806766272,0.0016034740256145597,-0.000687203137204051
1729696535833670100,6.994670166015625,-0.00007635590736754239,-0.005726693198084831,-0.0025197449140250683
1729696535843438300,7.004438232421875,-0.00007635590736754239,-0.008170082233846188,-0.0037414394319057465
1729696535853206300,7.014206298828125,-0.00007635590736754239,-0.0014507622690871358,-0.0019088976550847292
1729696535862974500,7.023974365234375,-0.00007635590736754239,0.009544488042593002,0.0017561858985573053
1729696535872742700,7.03374267578125,0.0005344913806766272,0.015042114071547985,0.0035887276753783226
1729696535882510800,7.0435107421875,0.0011453386396169662,0.005268557462841272,0.0011453386396169662
1729696535892279000,7.053279052734375,-0.00007635590736754239,-0.006948387715965509,-0.0031305921729654074
1729696535902047200,7.063047119140625,0.0005344913806766272,-0.010613471269607544,-0.0025197449140250683
1729696535911815400,7.0728154296875,0.0011453386396169662,-0.002061609411612153,-0.00007635590736754239
1729696535921583600,7.08258349609375,0.0011453386396169662,0.0064902519807219505,0.0023670331574976444
1729696535931351800,7.092351806640625,0.0011453386396169662,0.007101099472492933,0.0029778804164379835
1729696535941120000,7.1021201171875,0.0017561858985573053,0.0009926267666742206,0.0011453386396169662
1729696535950888000,7.111887939453125,0.0017561858985573053,-0.007559234742075205,-0.0019088976550847292
1729696535960656100,7.12165625,0.0011453386396169662,-0.008170082233846188,-0.0019088976550847292
1729696535970424300,7.13142431640625,0.0017561858985573053,-0.0014507622690871358,0.0005344913806766272
1729696535980192500,7.141192626953125,0.0017561858985573053,0.0064902519807219505,0.0017561858985573053
1729696535989960700,7.150960693359375,0.0023670331574976444,0.0064902519807219505,0.0023670331574976444
1729696535999729000,7.16072900390625,0.0017561858985573053,-0.002672456670552492,-0.000687203137204051
1729696536009497000,7.1704970703125,0.0017561858985573053,-0.008170082233846188,-0.0025197449140250683
1729696536019265300,7.180265380859375,0.0011453386396169662,-0.0051158457063138485,-0.0019088976550847292
1729696536029033500,7.190033447265625,0.0011453386396169662,0.0009926267666742206,-0.00007635590736754239
1729696536038801700,7.1998017578125,0.0005344913806766272,0.005879404954612255,0.0005344913806766272
1729696536048569600,7.209569580078125,0.0011453386396169662,0.005268557462841272,0.0005344913806766272
1729696536058337800,7.219337890625,0.0017561858985573053,0.00038177953683771193,-0.00129805039614439
1729696536068106000,7.22910595703125,0.0017561858985573053,-0.0051158457063138485,-0.0025197449140250683
1729696536077874200,7.238874267578125,0.0011453386396169662,-0.004504998680204153,-0.0025197449140250683
1729696536087642400,7.248642333984375,0.0017561858985573053,0.0016034740256145597,-0.0019088976550847292
1729696536097410600,7.25841064453125,0.0017561858985573053,0.004657710436731577,-0.00129805039614439
1729696536107178800,7.2681787109375,0.0011453386396169662,0.004657710436731577,-0.000687203137204051
1729696536116947000,7.277947021484375,0.0011453386396169662,-0.00022906772210262716,-0.00129805039614439
1729696536126715100,7.287715087890625,0.0005344913806766272,-0.0032833039294928312,-0.0025197449140250683
1729696536136483300,7.2974833984375,0.0011453386396169662,-0.002061609411612153,-0.00129805039614439
1729696536146251500,7.30725146484375,0.0017561858985573053,-0.00022906772210262716,-0.000687203137204051
1729696536156019500,7.31701953125,0.0017561858985573053,0.00038177953683771193,-0.00007635590736754239
1729696536165787600,7.32678759765625,0.0005344913806766272,0.00038177953683771193,0.0005344913806766272
1729696536175555800,7.336555908203125,0.0005344913806766272,0.0022143214009702206,0.0011453386396169662
1729696536185324000,7.346323974609375,0.0011453386396169662,0.0022143214009702206,0.0005344913806766272
1729696536195092200,7.35609228515625,0.0011453386396169662,-0.00022906772210262716,0.0005344913806766272
1729696536204860400,7.3658603515625,0.0017561858985573053,-0.0038941511884331703,-0.000687203137204051
1729696536214628600,7.375628662109375,0.0011453386396169662,-0.0014507622690871358,-0.00129805039614439
1729696536224396800,7.385396728515625,0.0005344913806766272,0.0028251686599105597,0.0005344913806766272
1729696536234165000,7.3951650390625,0.0005344913806766272,0.0028251686599105597,0.0005344913806766272
1729696536243933200,7.40493310546875,0.0005344913806766272,0.00038177953683771193,-0.000687203137204051
1729696536253701400,7.414701416015625,0.0011453386396169662,-0.0014507622690871358,-0.000687203137204051
1729696536263469300,7.42446923828125,0.0005344913806766272,-0.0008399150101467967,-0.000687203137204051
1729696536273237500,7.434237548828125,0.0011453386396169662,-0.0014507622690871358,-0.000687203137204051
1729696536283005700,7.444005615234375,0.0005344913806766272,-0.0008399150101467967,-0.00007635590736754239
1729696536292774000,7.45377392578125,0.0011453386396169662,0.0028251686599105597,0.0005344913806766272
1729696536302542000,7.4635419921875,0.0005344913806766272,0.0034360159188508987,0.0005344913806766272
1729696536312310300,7.473310302734375,0.0005344913806766272,0.00038177953683771193,-0.000687203137204051
1729696536322078500,7.483078369140625,0.0005344913806766272,-0.0038941511884331703,-0.00129805039614439
1729696536331846700,7.4928466796875,0.0017561858985573053,-0.002672456670552492,-0.00129805039614439
1729696536341614800,7.50261474609375,0.0005344913806766272,0.0009926267666742206,0.0005344913806766272
1729696536351383000,7.512383056640625,0.0011453386396169662,0.0022143214009702206,0.0011453386396169662
1729696536361151200,7.522151123046875,0.0011453386396169662,0.0009926267666742206,0.0005344913806766272
1729696536370919200,7.531919189453125,0.0005344913806766272,-0.002061609411612153,-0.00007635590736754239
1729696536380687400,7.541687255859375,0.0005344913806766272,-0.0038941511884331703,-0.000687203137204051
1729696536390455600,7.55145556640625,0.0005344913806766272,-0.002672456670552492,-0.000687203137204051
1729696536400223700,7.5612236328125,0.0005344913806766272,0.0009926267666742206,0.0005344913806766272
1729696536409992000,7.570991943359375,0.0011453386396169662,0.004046862944960594,0.0017561858985573053
1729696536419760000,7.580760009765625,0.0011453386396169662,0.0028251686599105597,0.0017561858985573053
1729696536429528300,7.5905283203125,0.0011453386396169662,-0.0014507622690871358,-0.00007635590736754239
1729696536439296500,7.600296630859375,0.0005344913806766272,-0.0051158457063138485,-0.00129805039614439
1729696536449064700,7.610064697265625,0.0005344913806766272,-0.002061609411612153,0.0005344913806766272
1729696536458833000,7.6198330078125,0.0005344913806766272,0.004657710436731577,0.0023670331574976444
1729696536468601000,7.62960107421875,0.0005344913806766272,0.004657710436731577,0.0023670331574976444
1729696536478369300,7.639369384765625,0.0005344913806766272,0.0016034740256145597,0.0017561858985573053
1729696536488137500,7.649137451171875,0.0005344913806766272,-0.0014507622690871358,0.0011453386396169662
1729696536497905400,7.658905517578125,0.0017561858985573053,-0.0038941511884331703,-0.000687203137204051
1729696536507673600,7.668673583984375,0.0011453386396169662,-0.0051158457063138485,-0.000687203137204051
1729696536517441800,7.67844189453125,0.0011453386396169662,-0.0008399150101467967,-0.00007635590736754239
1729696536527210000,7.6882099609375,0.0005344913806766272,0.005268557462841272,0.0023670331574976444
1729696536536978200,7.697978271484375,0.0005344913806766272,0.005268557462841272,0.0029778804164379835
1729696536546746400,7.707746337890625,0.0005344913806766272,-0.0014507622690871358,0.0005344913806766272
1729696536556514600,7.7175146484375,0.0005344913806766272,-0.006948387715965509,-0.0019088976550847292
1729696536566282800,7.72728271484375,0.0005344913806766272,-0.0051158457063138485,-0.0019088976550847292
1729696536576051000,7.737051025390625,0.0011453386396169662,0.0016034740256145597,0.0005344913806766272
1729696536585819100,7.746819091796875,0.0011453386396169662,0.004657710436731577,0.0017561858985573053
1729696536595587300,7.75658740234375,0.0005344913806766272,0.0022143214009702206,0.0011453386396169662
1729696536605355500,7.76635546875,0.0005344913806766272,-0.002061609411612153,0.0005344913806766272
1729696536615123700,7.776123779296875,-0.00007635590736754239,-0.0038941511884331703,-0.00007635590736754239
1729696536624892000,7.785891845703125,-0.00007635590736754239,-0.0032833039294928312,-0.000687203137204051
1729696536634659800,7.795659912109375,-0.00007635590736754239,-0.00022906772210262716,0.0005344913806766272
1729696536644428000,7.805427978515625,0.0011453386396169662,0.0034360159188508987,0.0011453386396169662
1729696536654196200,7.8151962890625,0.0005344913806766272,0.0022143214009702206,0.0017561858985573053
1729696536663964400,7.82496435546875,0.0005344913806766272,-0.0008399150101467967,0.0005344913806766272
1729696536673732600,7.834732666015625,0.0011453386396169662,-0.002672456670552492,-0.000687203137204051
1729696536683500800,7.844500732421875,0.0011453386396169662,-0.002061609411612153,0.0005344913806766272
1729696536693269000,7.85426904296875,0.0017561858985573053,-0.0014507622690871358,0.0005344913806766272
1729696536703037200,7.864037109375,0.0017561858985573053,-0.0014507622690871358,-0.00007635590736754239
1729696536712805400,7.873805419921875,0.0011453386396169662,-0.00022906772210262716,-0.00007635590736754239
1729696536722573600,7.883573486328125,0.0011453386396169662,0.0009926267666742206,0.0011453386396169662
1729696536732341800,7.893341796875,0.0005344913806766272,-0.0008399150101467967,0.0011453386396169662
1729696536742110000,7.90310986328125,0.0011453386396169662,-0.002061609411612153,-0.000687203137204051
1729696536751878100,7.912878173828125,0.0017561858985573053,0.00038177953683771193,0.0005344913806766272
1729696536761646300,7.922646240234375,0.0017561858985573053,0.0028251686599105597,0.0017561858985573053
1729696536771414500,7.93241455078125,0.0017561858985573053,0.0034360159188508987,0.0017561858985573053
1729696536781182700,7.9421826171875,0.0017561858985573053,0.0016034740256145597,0.0017561858985573053
1729696536790951000,7.951950927734375,0.0011453386396169662,-0.0032833039294928312,-0.00007635590736754239
1729696536800718800,7.96171875,0.0017561858985573053,-0.006948387715965509,-0.000687203137204051
1729696536810487000,7.971487060546875,0.0017561858985573053,-0.006948387715965509,-0.00129805039614439
1729696536820255200,7.981255126953125,0.0017561858985573053,-0.002061609411612153,0.0005344913806766272
1729696536830023400,7.9910234375,0.0005344913806766272,0.004046862944960594,0.0017561858985573053
1729696536839791600,8.00079150390625,0.0005344913806766272,0.005268557462841272,0.0017561858985573053
1729696536849559800,8.010559814453124,0.0005344913806766272,0.0034360159188508987,0.0011453386396169662
1729696536859328000,8.020327880859375,0.0011453386396169662,-0.002061609411612153,-0.000687203137204051
1729696536869096200,8.03009619140625,0.0005344913806766272,-0.005726693198084831,-0.0019088976550847292
1729696536878864400,8.039864501953126,0.0005344913806766272,-0.004504998680204153,-0.0019088976550847292
1729696536888632600,8.049632568359375,0.0005344913806766272,0.0016034740256145597,-0.00007635590736754239
1729696536898400800,8.05940087890625,0.0011453386396169662,0.007711946498602629,0.0023670331574976444
1729696536908169000,8.0691689453125,-0.00007635590736754239,0.0028251686599105597,0.0011453386396169662
1729696536917937200,8.078937255859374,-0.00007635590736754239,-0.0051158457063138485,-0.000687203137204051
1729696536927705300,8.088705322265625,0.0005344913806766272,-0.007559234742075205,-0.0025197449140250683
1729696536937473500,8.0984736328125,0.0005344913806766272,-0.002061609411612153,-0.000687203137204051
1729696536947241700,8.10824169921875,0.0005344913806766272,0.0064902519807219505,0.0017561858985573053
1729696536957010000,8.118010009765625,0.0005344913806766272,0.009544488042593002,0.0023670331574976444
1729696536966777900,8.12777783203125,0.0005344913806766272,0.0028251686599105597,0.0011453386396169662
1729696536976546000,8.137546142578126,0.0005344913806766272,-0.006337540224194527,-0.0019088976550847292
1729696536986314200,8.147314208984374,0.0011453386396169662,-0.007559234742075205,-0.0025197449140250683
1729696536996082400,8.15708251953125,-0.00007635590736754239,-0.00022906772210262716,-0.000687203137204051
1729696537005850600,8.1668505859375,0.0011453386396169662,0.007711946498602629,0.0017561858985573053
1729696537015618800,8.176618896484374,0.0011453386396169662,0.007711946498602629,0.0017561858985573053
1729696537025387000,8.186386962890625,0.0011453386396169662,-0.0008399150101467967,-0.00007635590736754239
1729696537035155200,8.1961552734375,0.0017561858985573053,-0.007559234742075205,-0.0025197449140250683
1729696537044923400,8.20592333984375,0.0017561858985573053,-0.008170082233846188,-0.0025197449140250683
1729696537054691600,8.215691650390625,0.0011453386396169662,-0.0008399150101467967,-0.000687203137204051
1729696537064459800,8.225459716796875,0.0005344913806766272,0.0034360159188508987,0.0005344913806766272
1729696537074228000,8.23522802734375,0.0005344913806766272,0.0009926267666742206,-0.000687203137204051
1729696537083996200,8.24499609375,0.0005344913806766272,-0.0051158457063138485,-0.0025197449140250683
1729696537093764400,8.254764404296875,0.0011453386396169662,-0.0038941511884331703,-0.00129805039614439
1729696537103532500,8.264532470703125,0.0011453386396169662,0.00038177953683771193,-0.00007635590736754239
1729696537113300700,8.27430078125,0.0011453386396169662,0.005268557462841272,0.0017561858985573053
1729696537123069000,8.28406884765625,0.0005344913806766272,0.005268557462841272,0.0017561858985573053
1729696537132836900,8.2938369140625,0.0005344913806766272,0.0009926267666742206,-0.00007635590736754239
1729696537142605000,8.30360498046875,-0.00007635590736754239,-0.0008399150101467967,-0.00007635590736754239
1729696537152373200,8.313373291015624,0.0005344913806766272,-0.00022906772210262716,0.0005344913806766272
1729696537162141400,8.323141357421875,0.0011453386396169662,0.0028251686599105597,0.0011453386396169662
1729696537171909600,8.33290966796875,0.0011453386396169662,0.0028251686599105597,0.0011453386396169662
1729696537181677800,8.342677734375,-0.00007635590736754239,-0.0008399150101467967,0.0005344913806766272
1729696537191446000,8.352446044921875,0.0005344913806766272,-0.002061609411612153,-0.000687203137204051
1729696537201214200,8.362214111328125,0.0005344913806766272,-0.00022906772210262716,0.0005344913806766272
1729696537210982400,8.371982421875,0.0011453386396169662,0.0028251686599105597,0.0011453386396169662
1729696537220750600,8.38175048828125,0.0011453386396169662,0.0009926267666742206,0.0011453386396169662
1729696537230518800,8.391518798828125,0.0011453386396169662,-0.002672456670552492,-0.00007635590736754239
1729696537240287000,8.401286865234376,0.0011453386396169662,-0.0032833039294928312,-0.00129805039614439
1729696537250055200,8.41105517578125,0.0017561858985573053,-0.0014507622690871358,-0.000687203137204051
1729696537259823400,8.4208232421875,0.0011453386396169662,0.0016034740256145597,0.0005344913806766272
1729696537269591600,8.430591552734375,0.0011453386396169662,0.0016034740256145597,0.0011453386396169662
1729696537279359700,8.44035986328125,0.0011453386396169662,0.0009926267666742206,0.0005344913806766272
1729696537289128000,8.4501279296875,0.0005344913806766272,-0.0038941511884331703,-0.00129805039614439
1729696537298896100,8.459896240234375,0.0011453386396169662,-0.009391776286065578,-0.0031305921729654074
1729696537308664300,8.469664306640626,0.0005344913806766272,-0.008780929259955883,-0.0031305921729654074
1729696537318432500,8.4794326171875,0.0011453386396169662,0.00038177953683771193,-0.00007635590736754239
1729696537328200700,8.48920068359375,0.0011453386396169662,0.008322793990373611,0.0023670331574976444
1729696537337969000,8.498968994140625,0.0011453386396169662,0.005268557462841272,0.0023670331574976444
1729696537347737000,8.508737060546874,0.0011453386396169662,-0.0014507622690871358,-0.00007635590736754239
1729696537357505300,8.51850537109375,0.0011453386396169662,0.0022143214009702206,0.0011453386396169662
1729696537367273500,8.5282734375,0.0011453386396169662,0.014431266114115715,0.004199574701488018
1729696537377041400,8.53804150390625,0.0011453386396169662,0.012598725035786629,0.0035887276753783226
1729696537386809600,8.5478095703125,0.0005344913806766272,-0.002061609411612153,-0.000687203137204051
1729696537396577800,8.557577880859375,-0.00007635590736754239,-0.014889402315020561,-0.004963133949786425
1729696537406346000,8.567345947265625,-0.00007635590736754239,-0.013667707331478596,-0.004963133949786425
1729696537416114200,8.5771142578125,0.0005344913806766272,-0.0032833039294928312,-0.00129805039614439
1729696537425882400,8.58688232421875,0.0005344913806766272,0.0034360159188508987,0.0011453386396169662
1729696537435650600,8.596650634765625,0.0005344913806766272,0.0022143214009702206,0.0011453386396169662
1729696537445418800,8.606418701171876,-0.00007635590736754239,-0.0032833039294928312,-0.000687203137204051
1729696537455187000,8.61618701171875,0.0005344913806766272,-0.004504998680204153,-0.00129805039614439
1729696537464955100,8.625955078125,0.0005344913806766272,0.0028251686599105597,0.0005344913806766272
1729696537474723300,8.635723388671876,0.0005344913806766272,0.008933641016483307,0.0029778804164379835
1729696537484491500,8.645491455078124,0.0011453386396169662,0.005879404954612255,0.0011453386396169662
1729696537494259700,8.655259765625,0.0011453386396169662,-0.004504998680204153,-0.0019088976550847292
1729696537504028000,8.66502783203125,0.0011453386396169662,-0.009391776286065578,-0.0019088976550847292
1729696537513796000,8.674796142578124,0.0011453386396169662,-0.0038941511884331703,-0.000687203137204051
1729696537523564300,8.684564208984375,0.0011453386396169662,0.0022143214009702206,0.0005344913806766272
1729696537533332500,8.69433251953125,0.0011453386396169662,0.0034360159188508987,0.0011453386396169662
1729696537543100700,8.7041005859375,0.0011453386396169662,0.0016034740256145597,-0.00007635590736754239
1729696537552868900,8.713868896484374,0.0011453386396169662,-0.0014507622690871358,-0.00007635590736754239
1729696537562637000,8.723636962890625,-0.00007635590736754239,-0.002672456670552492,-0.000687203137204051
1729696537572405200,8.7334052734375,0.0011453386396169662,-0.00022906772210262716,-0.00007635590736754239
1729696537582173400,8.74317333984375,0.0011453386396169662,0.0028251686599105597,0.0005344913806766272
1729696537591941600,8.752941650390625,0.0011453386396169662,0.0034360159188508987,0.0005344913806766272
1729696537601709800,8.762709716796875,0.0005344913806766272,0.00038177953683771193,-0.000687203137204051
1729696537611478000,8.77247802734375,0.0011453386396169662,-0.0032833039294928312,-0.00129805039614439
1729696537621246200,8.78224609375,0.0011453386396169662,-0.0032833039294928312,-0.00129805039614439
1729696537631014400,8.792014404296875,0.0011453386396169662,0.0009926267666742206,-0.000687203137204051
1729696537640782300,8.8017822265625,0.0011453386396169662,0.0034360159188508987,0.0005344913806766272
1729696537650550500,8.811550537109374,0.0017561858985573053,-0.0008399150101467967,-0.0019088976550847292
1729696537660319000,8.821319091796875,0.0011453386396169662,-0.0051158457063138485,-0.0025197449140250683
1729696537670087200,8.831087158203125,0.0005344913806766272,-0.002672456670552492,-0.00129805039614439
1729696537679855000,8.840855224609374,0.0011453386396169662,0.0034360159188508987,0.0005344913806766272
1729696537689623300,8.850623291015625,0.0011453386396169662,0.004046862944960594,0.0011453386396169662
1729696537699391500,8.8603916015625,0.0005344913806766272,0.0009926267666742206,0.0005344913806766272
1729696537709159700,8.87015966796875,0.0011453386396169662,-0.002672456670552492,-0.00129805039614439
1729696537718928000,8.879927978515624,-0.00007635590736754239,0.00038177953683771193,0.0011453386396169662
1729696537728696000,8.889696044921875,0.0011453386396169662,0.01382041908800602,0.005421269219368696
1729696537738464300,8.89946435546875,0.0017561858985573053,0.02053973823785782,0.006642963737249374
1729696537748232400,8.909232421875,0.0011453386396169662,0.007711946498602629,0.0029778804164379835
1729696537758000600,8.919000732421875,0.0011453386396169662,-0.014278554357588291,-0.0031305921729654074
1729696537767768800,8.928768798828125,0.0005344913806766272,-0.020997874438762665,-0.0067956759594380856
1729696537777537000,8.938537109375,-0.00007635590736754239,-0.0051158457063138485,-0.0025197449140250683
1729696537787305200,8.94830517578125,0.0011453386396169662,0.015042114071547985,0.004199574701488018
1729696537797073400,8.958073486328125,0.0005344913806766272,0.009544488042593002,0.0029778804164379835
1729696537806841600,8.967841552734376,0.0005344913806766272,-0.013667707331478596,-0.0037414394319057465
1729696537816609800,8.97760986328125,0.0011453386396169662,-0.016111096367239952,-0.005573981441557407
1729696537826378000,8.9873779296875,0.0011453386396169662,0.0016034740256145597,0.0005344913806766272
1729696537836146200,8.997146240234375,0.0011453386396169662,0.014431266114115715,0.005421269219368696
1729696537845914400,9.006914306640626,0.0005344913806766272,0.007711946498602629,0.0029778804164379835
1729696537855682600,9.0166826171875,0.0011453386396169662,-0.010002624243497849,-0.0025197449140250683
1729696537865450800,9.02645068359375,0.0005344913806766272,-0.02038702741265297,-0.0067956759594380856
1729696537875219000,9.036218994140626,0.0011453386396169662,-0.010613471269607544,-0.0037414394319057465
1729696537884987100,9.045987060546874,0.0005344913806766272,0.010766183026134968,0.0035887276753783226
1729696537894755300,9.05575537109375,0.0005344913806766272,0.016874656081199646,0.004810422193259001
1729696537904523500,9.0655234375,0.0005344913806766272,0.0009926267666742206,0.0005344913806766272
1729696537914291700,9.075291748046874,0.0005344913806766272,-0.014278554357588291,-0.004352286923676729
1729696537924060000,9.085059814453125,-0.000687203137204051,-0.012446013279259205,-0.004352286923676729
1729696537933828000,9.094828125,0.0005344913806766272,0.005879404954612255,0.0017561858985573053
1729696537943596300,9.10459619140625,0.0011453386396169662,0.015652960166335106,0.004810422193259001
1729696537953364500,9.114364501953125,0.0011453386396169662,0.005879404954612255,0.0023670331574976444
1729696537963132700,9.124132568359375,0.0005344913806766272,-0.010613471269607544,-0.0031305921729654074
1729696537972900900,9.13390087890625,0.0005344913806766272,-0.013667707331478596,-0.004352286923676729
1729696537982669000,9.1436689453125,0.0011453386396169662,-0.002672456670552492,-0.00129805039614439
1729696537992437200,9.153437255859375,0.0011453386396169662,0.009544488042593002,0.0029778804164379835
1729696538002205400,9.163205322265625,0.0017561858985573053,0.008322793990373611,0.0023670331574976444
1729696538011973600,9.1729736328125,0.0017561858985573053,-0.002672456670552492,-0.00007635590736754239
1729696538021741800,9.182741943359375,0.0011453386396169662,-0.01122431829571724,-0.0031305921729654074
1729696538031510000,9.192510009765625,0.0011453386396169662,-0.007559234742075205,-0.0019088976550847292
1729696538041278200,9.2022783203125,0.0011453386396169662,0.005268557462841272,0.0023670331574976444
1729696538051046400,9.21204638671875,0.0011453386396169662,0.012598725035786629,0.004810422193259001
1729696538060814600,9.221814697265625,0.0005344913806766272,0.0064902519807219505,0.0017561858985573053
1729696538070582800,9.231582763671875,0.0005344913806766272,-0.0051158457063138485,-0.0019088976550847292
1729696538080351000,9.24135107421875,0.0011453386396169662,-0.010002624243497849,-0.0031305921729654074
1729696538090119200,9.251119140625,0.0005344913806766272,-0.005726693198084831,-0.000687203137204051
1729696538099887400,9.260887451171875,0.0005344913806766272,0.0034360159188508987,0.0011453386396169662
1729696538109655600,9.270655517578126,0.0011453386396169662,0.008322793990373611,0.0017561858985573053
1729696538119423700,9.280423828125,0.0011453386396169662,0.005268557462841272,0.0011453386396169662
1729696538129192000,9.29019189453125,0.0011453386396169662,-0.0008399150101467967,-0.00007635590736754239
1729696538138960100,9.299960205078126,0.0005344913806766272,-0.006948387715965509,-0.0031305921729654074
1729696538148728000,9.30972802734375,0.0005344913806766272,-0.005726693198084831,-0.0019088976550847292
1729696538158496500,9.31949658203125,0.0005344913806766272,0.0016034740256145597,0.0005344913806766272
1729696538168264700,9.3292646484375,0.0005344913806766272,0.007711946498602629,0.0023670331574976444
1729696538178033000,9.339032958984374,0.0005344913806766272,0.007711946498602629,0.0023670331574976444
1729696538187800800,9.34880078125,0.0005344913806766272,-0.00022906772210262716,-0.00007635590736754239
1729696538197569300,9.3585693359375,0.0011453386396169662,-0.006948387715965509,-0.0019088976550847292
1729696538207337500,9.36833740234375,0.0011453386396169662,-0.006948387715965509,-0.00129805039614439
1729696538217105400,9.37810546875,0.0011453386396169662,-0.002061609411612153,-0.00007635590736754239
1729696538226873600,9.38787353515625,0.0011453386396169662,0.0034360159188508987,0.0017561858985573053
1729696538236642000,9.39764208984375,0.0011453386396169662,0.0064902519807219505,0.0029778804164379835
1729696538246410200,9.40741015625,0.0017561858985573053,0.0028251686599105597,0.0011453386396169662
1729696538256178200,9.41717822265625,0.0011453386396169662,-0.004504998680204153,-0.000687203137204051
1729696538265946400,9.4269462890625,0.0011453386396169662,-0.008170082233846188,-0.0019088976550847292
1729696538275714800,9.43671484375,0.0011453386396169662,-0.0051158457063138485,-0.0019088976550847292
1729696538285482800,9.446482666015624,0.0011453386396169662,0.0016034740256145597,0.0005344913806766272
1729696538295251000,9.4562509765625,0.0005344913806766272,0.005879404954612255,0.0023670331574976444
1729696538305019100,9.46601904296875,0.0005344913806766272,0.0034360159188508987,0.0005344913806766272
1729696538314787600,9.47578759765625,0.0005344913806766272,-0.002061609411612153,-0.00129805039614439
1729696538324555500,9.485555419921875,0.0011453386396169662,-0.005726693198084831,-0.0019088976550847292
1729696538334323700,9.49532373046875,0.0011453386396169662,-0.0014507622690871358,-0.00129805039614439
1729696538344092200,9.505092041015626,-0.00007635590736754239,0.004046862944960594,-0.00007635590736754239
1729696538353860000,9.514860107421875,0.0005344913806766272,0.005879404954612255,0.0011453386396169662
1729696538363628300,9.524628173828125,0.0005344913806766272,0.0028251686599105597,-0.00007635590736754239
1729696538373396700,9.534396728515626,0.0011453386396169662,-0.0014507622690871358,-0.00129805039614439
1729696538383165000,9.5441650390625,0.0005344913806766272,-0.0038941511884331703,-0.00129805039614439
1729696538392932900,9.553932861328125,0.0011453386396169662,-0.002672456670552492,-0.00129805039614439
1729696538402701000,9.563701171875,0.0005344913806766272,0.0016034740256145597,-0.00007635590736754239
1729696538412469500,9.573469482421874,0.0005344913806766272,0.0034360159188508987,0.0005344913806766272
1729696538422237400,9.583237548828125,0.0011453386396169662,0.0016034740256145597,0.0005344913806766272
1729696538432005600,9.593005615234375,0.0005344913806766272,-0.0008399150101467967,-0.000687203137204051
1729696538441774000,9.602774169921876,0.0005344913806766272,-0.002672456670552492,-0.000687203137204051
1729696538451542300,9.612542236328125,-0.00007635590736754239,-0.002672456670552492,-0.000687203137204051
1729696538461310200,9.622310302734375,0.0005344913806766272,-0.0008399150101467967,0.0005344913806766272
1729696538471078400,9.632078369140626,0.0005344913806766272,0.0016034740256145597,0.0005344913806766272
1729696538480846800,9.641846923828124,0.0011453386396169662,0.0028251686599105597,0.0011453386396169662
1729696538490614800,9.65161474609375,0.0005344913806766272,0.0016034740256145597,0.0005344913806766272
1729696538500383000,9.661383056640625,0.0005344913806766272,-0.002672456670552492,-0.00007635590736754239
1729696538510151400,9.6711513671875,0.0005344913806766272,-0.0038941511884331703,-0.000687203137204051
1729696538519919600,9.680919677734375,0.0005344913806766272,-0.0014507622690871358,-0.00007635590736754239
1729696538529687600,9.6906875,0.0005344913806766272,0.0022143214009702206,0.0005344913806766272
1729696538539456000,9.7004560546875,0.0005344913806766272,0.0034360159188508987,0.0011453386396169662
1729696538549224200,9.71022412109375,0.0005344913806766272,0.0009926267666742206,0.0005344913806766272
1729696538558992100,9.7199921875,0.0005344913806766272,-0.002061609411612153,0.0005344913806766272
1729696538568760600,9.729760498046875,0.0011453386396169662,-0.0032833039294928312,-0.000687203137204051
1729696538578528800,9.73952880859375,0.0011453386396169662,-0.00022906772210262716,-0.00007635590736754239
1729696538588297000,9.749296875,0.0005344913806766272,0.0009926267666742206,0.0005344913806766272
1729696538598065200,9.759065185546875,-0.00007635590736754239,0.0016034740256145597,0.0005344913806766272
1729696538607833300,9.768833251953126,0.0011453386396169662,0.00038177953683771193,-0.00007635590736754239
1729696538617601500,9.7786015625,0.0005344913806766272,-0.0008399150101467967,-0.00007635590736754239
1729696538627369700,9.78836962890625,0.0017561858985573053,-0.0014507622690871358,-0.00007635590736754239
1729696538637138000,9.798137939453126,0.0017561858985573053,-0.0008399150101467967,-0.00007635590736754239
1729696538646906000,9.807906005859374,0.0011453386396169662,0.00038177953683771193,-0.00007635590736754239
1729696538656674300,9.81767431640625,0.0005344913806766272,-0.00022906772210262716,0.0005344913806766272
1729696538666442500,9.8274423828125,0.0005344913806766272,-0.0008399150101467967,0.0005344913806766272
1729696538676210700,9.837210693359374,0.0011453386396169662,-0.0008399150101467967,-0.00007635590736754239
1729696538685979000,9.846978759765625,0.0005344913806766272,-0.0014507622690871358,-0.00007635590736754239
1729696538695747000,9.8567470703125,0.0011453386396169662,-0.004504998680204153,-0.00129805039614439
1729696538705515300,9.866515380859376,0.0005344913806766272,-0.004504998680204153,-0.000687203137204051
1729696538715283500,9.876283447265624,0.0011453386396169662,0.0028251686599105597,0.0005344913806766272
1729696538725051600,9.8860517578125,0.0005344913806766272,0.011987877078354359,0.004199574701488018
1729696538734819800,9.89581982421875,0.0005344913806766272,0.008933641016483307,0.0029778804164379835
1729696538744588000,9.905588134765624,0.0005344913806766272,-0.006337540224194527,-0.0025197449140250683
1729696538754356200,9.915356201171875,-0.00007635590736754239,-0.0130568603053689,-0.004352286923676729
1729696538764124400,9.92512451171875,0.0011453386396169662,-0.002672456670552492,-0.00007635590736754239
1729696538773892600,9.934892578125,0.0011453386396169662,0.008933641016483307,0.0035887276753783226
1729696538783660800,9.944660888671875,0.0005344913806766272,0.010766183026134968,0.0023670331574976444
1729696538793429000,9.954428955078125,-0.00007635590736754239,-0.0014507622690871358,-0.000687203137204051
1729696538803197200,9.964197265625,-0.00007635590736754239,-0.011835165321826935,-0.0037414394319057465
1729696538812965400,9.97396533203125,0.0005344913806766272,-0.010613471269607544,-0.0031305921729654074
1729696538822733600,9.983733642578125,0.0011453386396169662,0.0022143214009702206,0.0005344913806766272
1729696538832501800,9.993501708984375,0.0005344913806766272,0.010155336000025272,0.0029778804164379835
1729696538842270000,10.00327001953125,0.0005344913806766272,0.005268557462841272,0.0017561858985573053
1729696538852038100,10.0130380859375,0.0005344913806766272,-0.005726693198084831,-0.000687203137204051
1729696538861806300,10.022806396484375,-0.00007635590736754239,-0.007559234742075205,-0.0031305921729654074
1729696538871574500,10.032574462890626,0.0011453386396169662,-0.0014507622690871358,-0.00007635590736754239
1729696538881342700,10.0423427734375,0.0011453386396169662,0.005879404954612255,0.0023670331574976444
1729696538891111000,10.05211083984375,0.0005344913806766272,0.004657710436731577,0.0011453386396169662
1729696538900879000,10.061879150390626,0.0011453386396169662,-0.002061609411612153,-0.000687203137204051
1729696538910647300,10.071647216796874,0.0005344913806766272,-0.004504998680204153,-0.00129805039614439
1729696538920415500,10.08141552734375,0.0005344913806766272,-0.002672456670552492,-0.00129805039614439
1729696538930183700,10.09118359375,0.0005344913806766272,0.0016034740256145597,0.0005344913806766272
1729696538939951900,10.100951904296876,0.0011453386396169662,0.0022143214009702206,0.0011453386396169662
1729696538949720000,10.110719970703125,-0.00007635590736754239,-0.00022906772210262716,-0.00007635590736754239
1729696538959488300,10.12048828125,0.0005344913806766272,-0.002672456670552492,-0.00129805039614439
1729696538969256400,10.13025634765625,0.0005344913806766272,-0.0014507622690871358,-0.000687203137204051
1729696538979024600,10.140024658203124,0.0005344913806766272,0.0028251686599105597,0.0005344913806766272
1729696538988792800,10.149792724609375,0.0005344913806766272,0.004046862944960594,0.0011453386396169662
1729696538998561000,10.15956103515625,0.0005344913806766272,0.0009926267666742206,-0.00007635590736754239
1729696539008329200,10.1693291015625,0.0005344913806766272,-0.002061609411612153,-0.000687203137204051
1729696539018097400,10.179097412109375,0.0005344913806766272,-0.0008399150101467967,-0.000687203137204051
1729696539027865600,10.188865478515625,0.0005344913806766272,0.0009926267666742206,0.0005344913806766272
1729696539037633800,10.1986337890625,0.0005344913806766272,0.0009926267666742206,0.0005344913806766272
1729696539047402000,10.208402099609375,0.0011453386396169662,-0.0008399150101467967,-0.00007635590736754239
1729696539057170200,10.218170166015625,0.0011453386396169662,-0.0038941511884331703,-0.000687203137204051
1729696539066938400,10.2279384765625,0.0011453386396169662,-0.002672456670552492,-0.000687203137204051
1729696539076706600,10.23770654296875,0.0017561858985573053,0.0009926267666742206,-0.00007635590736754239
1729696539086474800,10.247474853515625,0.0011453386396169662,0.0028251686599105597,0.0005344913806766272
1729696539096243200,10.2572431640625,0.0011453386396169662,-0.0008399150101467967,-0.00007635590736754239
1729696539106011100,10.26701123046875,0.0005344913806766272,-0.0032833039294928312,-0.00129805039614439
1729696539115779300,10.276779296875,0.0011453386396169662,-0.0032833039294928312,-0.000687203137204051
1729696539125547800,10.2865478515625,0.0011453386396169662,-0.00022906772210262716,0.0005344913806766272
1729696539135316000,10.29631591796875,0.0011453386396169662,0.0022143214009702206,-0.00007635590736754239
1729696539145084200,10.306084228515624,0.0011453386396169662,0.0009926267666742206,0.0005344913806766272
1729696539154852400,10.315852294921875,0.0011453386396169662,-0.0008399150101467967,-0.00007635590736754239
1729696539164620500,10.32562060546875,0.0011453386396169662,-0.002672456670552492,-0.000687203137204051
1729696539174388700,10.335388671875,0.0017561858985573053,-0.0014507622690871358,-0.00007635590736754239
1729696539184157000,10.345156982421875,0.0017561858985573053,0.0009926267666742206,-0.00007635590736754239
1729696539193925000,10.354925048828125,0.0005344913806766272,0.0022143214009702206,0.0005344913806766272
1729696539203693300,10.364693359375,0.0005344913806766272,0.00038177953683771193,0.0005344913806766272
1729696539213461500,10.37446142578125,0.0005344913806766272,-0.0014507622690871358,-0.00007635590736754239
1729696539223229700,10.384229736328125,-0.00007635590736754239,-0.00022906772210262716,-0.00007635590736754239
1729696539232998000,10.393997802734376,0.0005344913806766272,0.0009926267666742206,-0.000687203137204051
1729696539242766000,10.40376611328125,0.0005344913806766272,0.0016034740256145597,-0.00007635590736754239
1729696539252534300,10.4135341796875,0.0005344913806766272,0.00038177953683771193,-0.00007635590736754239
1729696539262302500,10.423302490234375,0.0011453386396169662,0.0009926267666742206,0.0005344913806766272
1729696539272070700,10.433070556640626,0.0011453386396169662,-0.00022906772210262716,-0.00007635590736754239
1729696539281838800,10.4428388671875,0.0005344913806766272,-0.002061609411612153,-0.000687203137204051
1729696539291607000,10.45260693359375,-0.00007635590736754239,-0.0008399150101467967,-0.000687203137204051
1729696539301375200,10.462375244140626,0.0005344913806766272,-0.0008399150101467967,0.0005344913806766272
1729696539311143400,10.472143310546874,-0.00007635590736754239,-0.00022906772210262716,-0.00007635590736754239
1729696539320911600,10.48191162109375,0.0005344913806766272,0.00038177953683771193,0.0011453386396169662
1729696539330679800,10.4916796875,0.0005344913806766272,-0.00022906772210262716,0.0005344913806766272
1729696539340448000,10.501447998046874,0.0005344913806766272,-0.0008399150101467967,-0.00007635590736754239
1729696539350216200,10.51121630859375,0.0011453386396169662,-0.0014507622690871358,-0.00007635590736754239
1729696539359984400,10.520984375,0.0011453386396169662,-0.0014507622690871358,-0.00007635590736754239
1729696539369752600,10.530752685546876,0.0005344913806766272,0.00038177953683771193,0.0005344913806766272
1729696539379520800,10.540520751953125,0.0011453386396169662,0.0009926267666742206,0.0017561858985573053
1729696539389289000,10.5502890625,0.0005344913806766272,-0.0008399150101467967,-0.00007635590736754239
1729696539399057200,10.56005712890625,0.0011453386396169662,-0.002061609411612153,-0.00007635590736754239
1729696539408825600,10.56982568359375,0.0011453386396169662,-0.0008399150101467967,0.0005344913806766272
1729696539418593500,10.579593505859375,0.0011453386396169662,0.0009926267666742206,-0.00007635590736754239
1729696539428362000,10.589362060546875,0.0011453386396169662,0.0009926267666742206,0.0005344913806766272
1729696539438130200,10.599130126953124,0.0011453386396169662,0.0009926267666742206,0.0005344913806766272
1729696539447898000,10.608898193359375,0.0011453386396169662,0.00038177953683771193,0.0005344913806766272
1729696539457666600,10.61866650390625,0.0011453386396169662,-0.0008399150101467967,-0.00007635590736754239
1729696539467434800,10.628434814453126,0.0017561858985573053,-0.0014507622690871358,-0.00007635590736754239
1729696539477203000,10.638202880859374,0.0005344913806766272,0.0009926267666742206,-0.00007635590736754239
1729696539486971100,10.64797119140625,0.0011453386396169662,0.0009926267666742206,0.0005344913806766272
1729696539496739300,10.6577392578125,0.0005344913806766272,-0.00022906772210262716,0.0005344913806766272
1729696539506507500,10.667507568359374,-0.00007635590736754239,-0.0014507622690871358,-0.00007635590736754239
1729696539516275700,10.677275634765625,0.0011453386396169662,-0.0008399150101467967,-0.00007635590736754239
1729696539526044000,10.6870439453125,0.0005344913806766272,0.00038177953683771193,-0.00007635590736754239
1729696539535812000,10.69681201171875,0.0005344913806766272,0.00038177953683771193,-0.00007635590736754239
1729696539545580300,10.706580322265625,0.0005344913806766272,0.00038177953683771193,-0.00007635590736754239
1729696539555348500,10.716348388671875,0.0011453386396169662,0.00038177953683771193,0.0005344913806766272
1729696539565116700,10.72611669921875,0.0011453386396169662,0.0009926267666742206,0.0005344913806766272
1729696539574884900,10.735884765625,0.0017561858985573053,0.00038177953683771193,0.0005344913806766272
1729696539584653000,10.745653076171875,0.0011453386396169662,-0.002061609411612153,-0.00007635590736754239
1729696539594421200,10.755421142578125,0.0011453386396169662,-0.0014507622690871358,-0.000687203137204051
1729696539604189400,10.765189453125,0.0023670331574976444,-0.0014507622690871358,-0.000687203137204051
1729696539613957600,10.77495751953125,0.0011453386396169662,0.0009926267666742206,0.0005344913806766272
1729696539623725800,10.784725830078125,0.0005344913806766272,0.0022143214009702206,0.0005344913806766272
1729696539633494000,10.794493896484376,0.0011453386396169662,0.00038177953683771193,0.0005344913806766272
1729696539643262200,10.80426220703125,0.0005344913806766272,-0.0008399150101467967,-0.00007635590736754239
1729696539653030700,10.81403076171875,0.0005344913806766272,-0.002061609411612153,-0.000687203137204051
1729696539662798600,10.823798583984376,0.0005344913806766272,-0.00022906772210262716,0.0005344913806766272
1729696539672567000,10.833567138671874,0.0011453386396169662,0.0009926267666742206,0.0005344913806766272
1729696539682335200,10.843335205078125,0.0011453386396169662,0.0016034740256145597,0.0005344913806766272
1729696539692103400,10.853103515625,0.0005344913806766272,-0.00022906772210262716,-0.00007635590736754239
1729696539701871600,10.86287158203125,0.0005344913806766272,-0.002672456670552492,-0.00007635590736754239
1729696539711639800,10.872639892578125,0.0005344913806766272,-0.002061609411612153,-0.00007635590736754239
1729696539721408000,10.882407958984375,0.0011453386396169662,-0.00022906772210262716,0.0005344913806766272
1729696539731176200,10.89217626953125,0.0011453386396169662,0.00038177953683771193,-0.000687203137204051
1729696539740944400,10.9019443359375,0.0005344913806766272,0.00038177953683771193,-0.00007635590736754239
1729696539750712600,10.911712646484375,0.0005344913806766272,-0.0008399150101467967,-0.000687203137204051
1729696539760480800,10.921480712890625,0.0011453386396169662,-0.00022906772210262716,-0.00007635590736754239
1729696539770249000,10.9312490234375,0.0011453386396169662,-0.00022906772210262716,-0.00007635590736754239
1729696539780017200,10.94101708984375,0.0011453386396169662,-0.00022906772210262716,-0.00007635590736754239
1729696539789785300,10.950785400390625,0.0005344913806766272,-0.0008399150101467967,-0.00007635590736754239
1729696539799553500,10.960553466796876,0.0011453386396169662,0.00038177953683771193,0.0005344913806766272
1729696539809321700,10.97032177734375,0.0005344913806766272,-0.00022906772210262716,-0.00007635590736754239
1729696539819090000,10.98008984375,0.0005344913806766272,0.00038177953683771193,-0.00007635590736754239
1729696539828858000,10.989858154296876,0.0005344913806766272,0.00038177953683771193,-0.00007635590736754239
1729696539838626300,10.999626220703124,0.0011453386396169662,-0.0008399150101467967,0.0005344913806766272
1729696539848394500,11.00939453125,0.0005344913806766272,-0.0008399150101467967,-0.00007635590736754239
1729696539858163000,11.019162841796875,0.0005344913806766272,-0.0008399150101467967,-0.00007635590736754239
1729696539867931000,11.028930908203124,0.0005344913806766272,-0.00022906772210262716,-0.00007635590736754239
1729696539877699300,11.03869921875,0.0005344913806766272,0.00038177953683771193,-0.00007635590736754239
1729696539887467500,11.048467529296875,0.0011453386396169662,0.0009926267666742206,0.0005344913806766272
1729696539897235700,11.058235595703126,0.0017561858985573053,-0.0014507622690871358,-0.00007635590736754239
1729696539907004000,11.06800390625,0.0005344913806766272,-0.0014507622690871358,-0.000687203137204051
1729696539916772000,11.077772216796875,0.0005344913806766272,0.00038177953683771193,-0.000687203137204051
1729696539926540300,11.087540283203126,0.0005344913806766272,0.0016034740256145597,0.0005344913806766272
1729696539936308500,11.09730859375,0.0011453386396169662,0.0016034740256145597,0.0011453386396169662
1729696539946076700,11.10707666015625,0.0011453386396169662,-0.00022906772210262716,-0.00007635590736754239
1729696539955844900,11.116844970703125,0.0011453386396169662,-0.0014507622690871358,-0.00007635590736754239
1729696539965613000,11.126613037109376,0.0011453386396169662,-0.0014507622690871358,-0.000687203137204051
1729696539975381200,11.13638134765625,0.0005344913806766272,-0.0008399150101467967,-0.00007635590736754239
1729696539985149400,11.1461494140625,0.0011453386396169662,0.0009926267666742206,-0.00007635590736754239
1729696539994917600,11.155917724609376,0.0011453386396169662,0.0009926267666742206,-0.000687203137204051
1729696540004685800,11.165685791015624,0.0011453386396169662,-0.0014507622690871358,-0.00007635590736754239
1729696540014454000,11.1754541015625,0.0011453386396169662,-0.0032833039294928312,-0.000687203137204051
1729696540024222200,11.18522216796875,0.0005344913806766272,-0.002672456670552492,-0.00007635590736754239
1729696540033990700,11.19499072265625,0.0011453386396169662,-0.0014507622690871358,-0.00007635590736754239
1729696540043758600,11.204758544921875,0.0011453386396169662,0.00038177953683771193,-0.00007635590736754239
1729696540053527000,11.214527099609375,0.0011453386396169662,0.0016034740256145597,0.0005344913806766272
1729696540063295200,11.224295166015626,0.0011453386396169662,-0.00022906772210262716,-0.00007635590736754239
1729696540073063400,11.2340634765625,0.0011453386396169662,-0.0014507622690871358,-0.00007635590736754239
1729696540082831600,11.24383154296875,0.0011453386396169662,-0.0008399150101467967,-0.000687203137204051
1729696540092599800,11.253599853515626,0.0011453386396169662,0.0016034740256145597,-0.00007635590736754239
1729696540102368000,11.263367919921874,0.0011453386396169662,0.0009926267666742206,0.0005344913806766272
1729696540112136200,11.27313623046875,0.0011453386396169662,-0.0008399150101467967,0.0005344913806766272
1729696540121904400,11.282904296875,0.0005344913806766272,-0.00022906772210262716,-0.00007635590736754239
1729696540131672600,11.292672607421874,0.0011453386396169662,-0.00022906772210262716,-0.00007635590736754239
1729696540141440800,11.302440673828125,0.0005344913806766272,0.0009926267666742206,-0.00007635590736754239
