time,seconds_elapsed,z,y,x
1729696528945760300,0.10676025390625,-279.65625,156.0187530517578,81.3375015258789
1729696528955760400,0.116760498046875,-280.03125,156.03750610351562,81.63750457763672
1729696528965760300,0.12676025390625,-280.7250061035156,155.85000610351562,81.45000457763672
1729696528975760400,0.136760498046875,-280.875,156,82.125
1729696528985760300,0.14676025390625,-281.1187744140625,156.09375,82.06875610351562
1729696528995760400,0.156760498046875,-280.9875183105469,156.13125610351562,82.125
1729696529005760300,0.16676025390625,-280.9312744140625,156.03750610351562,82.1812515258789
1729696529015760400,0.176760498046875,-280.96875,156.07501220703125,82.16250610351562
1729696529025760300,0.18676025390625,-281.15625,156.0187530517578,82.23750305175781
1729696529035760400,0.196760498046875,-281.2687683105469,156.16876220703125,82.3687515258789
1729696529045760300,0.20676025390625,-281.15625,156.3000030517578,82.61250305175781
1729696529055760400,0.216760498046875,-281.0062561035156,156.24375915527344,82.40625
1729696529065760300,0.22676025390625,-280.7437744140625,156.24375915527344,82.4625015258789
1729696529075760400,0.236760498046875,-280.9125061035156,156.13125610351562,82.29375457763672
1729696529085760300,0.24676025390625,-280.9875183105469,156.1125030517578,82.21875
1729696529095760400,0.256760498046875,-280.9875183105469,156.1125030517578,82.3125
1729696529105760300,0.26676025390625,-280.95001220703125,156.26251220703125,82.2750015258789
1729696529115760400,0.276760498046875,-280.8187561035156,156.13125610351562,82.2750015258789
1729696529125760300,0.28676025390625,-280.57501220703125,156.0187530517578,82.21875
1729696529135760400,0.296760498046875,-280.7250061035156,155.9250030517578,82.0875015258789
1729696529145760300,0.30676025390625,-280.6875,155.6437530517578,81.88125610351562
1729696529155760400,0.316760498046875,-280.57501220703125,155.7375030517578,81.9937515258789
1729696529165760300,0.32676025390625,-280.3312683105469,155.7375030517578,82.23750305175781
1729696529175760400,0.336760498046875,-280.3312683105469,155.7375030517578,82.29375457763672
1729696529185760300,0.34676025390625,-280.21875,155.5500030517578,82.5
1729696529195760400,0.356760498046875,-280.2750244140625,155.51251220703125,82.5
1729696529205760300,0.36676025390625,-280.40625,155.6437530517578,82.23750305175781
1729696529215760400,0.376760498046875,-280.3687744140625,155.75625610351562,82.29375457763672
1729696529225760300,0.38676025390625,-280.5187683105469,156.09375,82.66875457763672
1729696529235760400,0.396760498046875,-280.3687744140625,155.8125,82.63125610351562
1729696529245760300,0.40676025390625,-280.40625,155.85000610351562,82.29375457763672
1729696529255760400,0.416760498046875,-280.0687561035156,155.79376220703125,82.21875
1729696529265760300,0.42676025390625,-280.21875,155.90625,82.01250457763672
1729696529275760400,0.436760498046875,-280.2750244140625,156.07501220703125,81.91875457763672
1729696529285760300,0.44676025390625,-280.48126220703125,156.03750610351562,82.29375457763672
1729696529295760400,0.456760498046875,-280.6125183105469,156.07501220703125,82.53750610351562
1729696529305760300,0.46676025390625,-280.6125183105469,156.16876220703125,82.20000457763672
1729696529315760400,0.476760498046875,-280.6312561035156,156.45001220703125,82.33125305175781
1729696529325760300,0.48676025390625,-280.8187561035156,156.69375610351562,82.2750015258789
1729696529335760400,0.496760498046875,-281.1187744140625,156.75,82.16250610351562
1729696529345760300,0.50676025390625,-281.0062561035156,156.7687530517578,82.14375305175781
1729696529355760400,0.516760498046875,-280.95001220703125,156.63751220703125,82.0875015258789
1729696529365760300,0.52676025390625,-280.7437744140625,156.5812530517578,82.01250457763672
1729696529375760400,0.536760498046875,-280.66876220703125,156.61875915527344,81.8062515258789
1729696529385760300,0.54676025390625,-280.6875,156.43125915527344,81.9937515258789
1729696529395760400,0.556760498046875,-280.5375061035156,156.46875,81.78750610351562
1729696529405760300,0.56676025390625,-280.4250183105469,156.43125915527344,82.05000305175781
1729696529415760400,0.576760498046875,-280.2562561035156,156.41250610351562,82.06875610351562
1729696529425760300,0.58676025390625,-280.1812744140625,156.33750915527344,82.0875015258789
1729696529435760400,0.596760498046875,-280.21875,156.31875610351562,82.06875610351562
1729696529445760300,0.60676025390625,-280.0875244140625,156.22500610351562,81.88125610351562
1729696529455760400,0.616760498046875,-279.9562683105469,156.16876220703125,81.73125457763672
1729696529465760300,0.62676025390625,-279.9937744140625,156.3000030517578,81.78750610351562
1729696529475760400,0.636760498046875,-280.01251220703125,156.1125030517578,81.84375
1729696529485760300,0.64676025390625,-279.9937744140625,155.8312530517578,81.6187515258789
1729696529495760400,0.656760498046875,-280.0875244140625,155.8312530517578,81.82500457763672
1729696529505760300,0.66676025390625,-280.3687744140625,155.90625,81.65625
1729696529515760400,0.676760498046875,-280.29376220703125,155.90625,81.75
1729696529525760300,0.68676025390625,-280.38751220703125,156,81.84375
1729696529535760400,0.696760498046875,-280.2375183105469,156.07501220703125,82.05000305175781
1729696529545760300,0.70676025390625,-279.8062744140625,155.98126220703125,81.9937515258789
1729696529555760400,0.716760498046875,-279.9000244140625,156.24375915527344,82.05000305175781
1729696529565760300,0.72676025390625,-279.7875061035156,156.43125915527344,82.0875015258789
1729696529575760400,0.736760498046875,-279.82501220703125,156.35626220703125,81.82500457763672
1729696529585760300,0.74676025390625,-279.82501220703125,156.46875,82.20000457763672
1729696529595760400,0.756760498046875,-279.82501220703125,156.3937530517578,82.125
1729696529605760300,0.76676025390625,-280.03125,156.45001220703125,82.20000457763672
1729696529615760400,0.776760498046875,-280.125,156.31875610351562,82.25625610351562
1729696529625760300,0.78676025390625,-280.4625244140625,156.33750915527344,82.23750305175781
1729696529635760400,0.796760498046875,-280.59375,156.22500610351562,82.33125305175781
1729696529645760300,0.80676025390625,-280.7062683105469,155.98126220703125,82.40625
1729696529655760400,0.816760498046875,-280.6500244140625,156.05625915527344,82.42500305175781
1729696529665760300,0.82676025390625,-280.48126220703125,156.22500610351562,82.33125305175781
1729696529675760400,0.836760498046875,-280.38751220703125,156.31875610351562,82.3125
1729696529685760300,0.84676025390625,-280.03125,156.3000030517578,82.05000305175781
1729696529695760400,0.856760498046875,-280.1625061035156,156.3000030517578,81.8062515258789
1729696529705760300,0.86676025390625,-279.9937744140625,156.22500610351562,81.60000610351562
1729696529715760400,0.876760498046875,-279.82501220703125,156.28125,81.63750457763672
1729696529725760300,0.88676025390625,-279.8062744140625,156.3937530517578,81.60000610351562
1729696529735760400,0.896760498046875,-279.7687683105469,156.375,81.5250015258789
1729696529745760300,0.90676025390625,-279.63751220703125,156.09375,81.65625
1729696529755760400,0.916760498046875,-279.5250244140625,155.90625,81.6187515258789
1729696529765760300,0.92676025390625,-279.7687683105469,156.0187530517578,81.78750610351562
1729696529775760400,0.936760498046875,-279.5812683105469,156.05625915527344,82.03125
1729696529785760300,0.94676025390625,-279.7875061035156,156.07501220703125,82.25625610351562
1729696529795760400,0.956760498046875,-279.84375,156.09375,82.05000305175781
1729696529805760300,0.96676025390625,-279.5812683105469,156.2062530517578,82.01250457763672
1729696529815760400,0.976760498046875,-279.54376220703125,156.15000915527344,82.20000457763672
1729696529825760300,0.98676025390625,-279.5250244140625,155.98126220703125,81.9937515258789
1729696529835760400,0.996760498046875,-279.6937561035156,156.05625915527344,82.01250457763672
1729696529845760300,1.00676025390625,-279.5250244140625,155.77500915527344,82.06875610351562
1729696529855760400,1.016760498046875,-279.3187561035156,155.6437530517578,81.91875457763672
1729696529865760300,1.02676025390625,-279.0187683105469,155.6437530517578,82.01250457763672
1729696529875760400,1.036760498046875,-278.9250183105469,155.4562530517578,82.10625457763672
1729696529885760300,1.04676025390625,-279.1875,155.49375915527344,82.01250457763672
1729696529895760400,1.056760498046875,-279.09375,155.66250610351562,81.9000015258789
1729696529905760300,1.06676025390625,-278.9625244140625,155.70001220703125,81.75
1729696529915760400,1.076760498046875,-278.8125,155.8312530517578,81.78750610351562
1729696529925760300,1.08676025390625,-278.7375183105469,156.03750610351562,81.76875305175781
1729696529935760400,1.096760498046875,-278.8125,156.05625915527344,81.84375
1729696529945760300,1.10676025390625,-278.9250183105469,156.16876220703125,81.73125457763672
1729696529955760400,1.116760498046875,-278.98126220703125,156.07501220703125,81.84375
1729696529965760300,1.12676025390625,-278.79376220703125,156,81.91875457763672
1729696529975760400,1.136760498046875,-279,155.94375610351562,81.97500610351562
1729696529985760300,1.14676025390625,-279.2250061035156,156.09375,82.0875015258789
1729696529995760400,1.156760498046875,-279.45001220703125,156.03750610351562,82.10625457763672
1729696530005760300,1.16676025390625,-279.6000061035156,156.07501220703125,82.1812515258789
1729696530015760400,1.176760498046875,-279.6000061035156,156.2062530517578,81.9000015258789
1729696530025760300,1.18676025390625,-279.45001220703125,156.22500610351562,81.82500457763672
1729696530035760400,1.196760498046875,-279.4312744140625,156.375,81.91875457763672
1729696530045760300,1.20676025390625,-279.6000061035156,156.24375915527344,81.9000015258789
1729696530055760400,1.216760498046875,-279.1875,156.13125610351562,81.88125610351562
1729696530065760300,1.22676025390625,-278.9437561035156,156.1125030517578,81.86250305175781
1729696530075760400,1.236760498046875,-278.8125,156.1125030517578,81.9000015258789
1729696530085760300,1.24676025390625,-278.71875,156.0187530517578,81.84375
1729696530095760400,1.256760498046875,-278.9625244140625,156.03750610351562,82.03125
1729696530105760300,1.26676025390625,-279.09375,155.66250610351562,82.01250457763672
1729696530115760400,1.276760498046875,-279.1312561035156,155.4562530517578,81.73125457763672
1729696530125760300,1.28676025390625,-278.88751220703125,155.71875,81.9375
1729696530135760400,1.296760498046875,-279.1500244140625,155.79376220703125,81.91875457763672
1729696530145760300,1.30676025390625,-279.2062683105469,155.70001220703125,81.9000015258789
1729696530155760400,1.316760498046875,-279.3187561035156,155.68125915527344,82.01250457763672
1729696530165760300,1.32676025390625,-279,155.53125,81.91875457763672
1729696530175760400,1.336760498046875,-278.79376220703125,155.56875610351562,81.91875457763672
1729696530185760300,1.34676025390625,-278.70001220703125,155.90625,81.9375
1729696530195760400,1.356760498046875,-278.51251220703125,155.94375610351562,82.03125
1729696530205760300,1.36676025390625,-278.7562561035156,155.75625610351562,81.84375
1729696530215760400,1.376760498046875,-278.90625,155.68125915527344,81.76875305175781
1729696530225760300,1.38676025390625,-278.9625244140625,155.8125,81.67500305175781
1729696530235760400,1.396760498046875,-278.8687744140625,155.98126220703125,81.45000457763672
1729696530245760300,1.40676025390625,-279.3000183105469,156.1875,81.39375305175781
1729696530255760400,1.416760498046875,-279.28125,156.15000915527344,81.58125305175781
1729696530265760300,1.42676025390625,-279.4125061035156,156.05625915527344,81.3375015258789
1729696530275760400,1.436760498046875,-279.5062561035156,156.2062530517578,81.26250457763672
1729696530285760300,1.44676025390625,-279.3000183105469,156.28125,81.13125610351562
1729696530295760400,1.456760498046875,-279.2437744140625,156.16876220703125,81.2437515258789
1729696530305760300,1.46676025390625,-279.28125,156.26251220703125,81.3375015258789
1729696530315760400,1.476760498046875,-279.375,156.0187530517578,81.03750610351562
1729696530325760300,1.48676025390625,-279.3187561035156,155.86875915527344,80.73750305175781
1729696530335760400,1.496760498046875,-279.54376220703125,155.75625610351562,80.38125610351562
1729696530345760300,1.50676025390625,-279.375,155.75625610351562,80.51250457763672
1729696530355760400,1.516760498046875,-279.35626220703125,155.75625610351562,80.60625457763672
1729696530365760300,1.52676025390625,-279.6937561035156,155.8125,80.73750305175781
1729696530375760400,1.536760498046875,-279.8062744140625,155.88751220703125,80.8125
1729696530385760300,1.54676025390625,-279.7125244140625,155.66250610351562,80.625
1729696530395760400,1.556760498046875,-279.63751220703125,155.8312530517578,80.85000610351562
1729696530405760300,1.56676025390625,-279.5250244140625,155.90625,81.1500015258789
1729696530415760400,1.576760498046875,-279.5062561035156,155.88751220703125,81.26250457763672
1729696530425760300,1.58676025390625,-279.5250244140625,155.86875915527344,81.28125
1729696530435760400,1.596760498046875,-279.6750183105469,156.03750610351562,81.45000457763672
1729696530445760300,1.60676025390625,-279.4875183105469,155.96250915527344,81.54375457763672
1729696530455760400,1.616760498046875,-279.3937683105469,156,81.41250610351562
1729696530465760300,1.62676025390625,-279.65625,156.3000030517578,81.65625
1729696530475760400,1.636760498046875,-279.6187744140625,156.24375915527344,81.84375
1729696530485760300,1.64676025390625,-279.63751220703125,156.35626220703125,81.9000015258789
1729696530495760400,1.656760498046875,-279.5812683105469,156.54376220703125,81.9375
1729696530505760300,1.66676025390625,-279.5062561035156,156.5625,82.14375305175781
1729696530515760400,1.676760498046875,-279.1125183105469,156.41250610351562,82.16250610351562
1729696530525760300,1.68676025390625,-279.2250061035156,156.35626220703125,82.05000305175781
1729696530535760400,1.696760498046875,-279.26251220703125,156.31875610351562,82.3125
1729696530545760300,1.70676025390625,-279.0562744140625,156.1125030517578,82.38750457763672
1729696530555760400,1.716760498046875,-278.9250183105469,156.3000030517578,82.2750015258789
1729696530565760300,1.72676025390625,-278.8312683105469,156.15000915527344,82.40625
1729696530575760400,1.736760498046875,-278.8687744140625,156.03750610351562,82.5562515258789
1729696530585760300,1.74676025390625,-279.07501220703125,156.0187530517578,82.5
1729696530595760400,1.756760498046875,-279.4312744140625,155.90625,82.40625
1729696530605760300,1.76676025390625,-279.2437744140625,155.98126220703125,82.57500457763672
1729696530615760400,1.776760498046875,-279.1125183105469,156.16876220703125,82.4625015258789
1729696530625760300,1.78676025390625,-279.1125183105469,156.2062530517578,82.2750015258789
1729696530635760400,1.796760498046875,-279.26251220703125,156.0187530517578,82.0875015258789
1729696530645760300,1.80676025390625,-279.3000183105469,156.1875,82.23750305175781
1729696530655760400,1.816760498046875,-279.2437744140625,156.22500610351562,82.10625457763672
1729696530665760300,1.82676025390625,-279.2437744140625,156.3000030517578,82.01250457763672
1729696530675760400,1.836760498046875,-279.2437744140625,156.54376220703125,82.01250457763672
1729696530685760300,1.84676025390625,-279.4125061035156,156.3937530517578,81.9375
1729696530695760400,1.856760498046875,-279.4125061035156,156.33750915527344,82.03125
1729696530705760300,1.86676025390625,-279.63751220703125,156.3937530517578,82.33125305175781
1729696530715760400,1.876760498046875,-279.8812561035156,156.24375915527344,82.66875457763672
1729696530725760300,1.88676025390625,-279.9562683105469,156.24375915527344,82.35000610351562
1729696530735760400,1.896760498046875,-280.20001220703125,156.15000915527344,82.5
1729696530745760300,1.90676025390625,-280.3687744140625,156.09375,82.76250457763672
1729696530755760400,1.916760498046875,-280.38751220703125,155.86875915527344,82.85625457763672
1729696530765760300,1.92676025390625,-280.48126220703125,156.1125030517578,82.9312515258789
1729696530775760400,1.936760498046875,-280.7437744140625,156,82.95000457763672
1729696530785760300,1.94676025390625,-280.6500244140625,155.79376220703125,83.04375457763672
1729696530795760400,1.956760498046875,-280.4437561035156,155.98126220703125,83.1187515258789
1729696530805760300,1.96676025390625,-280.7250061035156,155.9250030517578,83.32500457763672
1729696530815760400,1.976760498046875,-280.5562744140625,155.96250915527344,83.4937515258789
1729696530825760300,1.98676025390625,-280.2375183105469,155.86875915527344,83.38125610351562
1729696530835760400,1.996760498046875,-280.2562561035156,155.70001220703125,83.56875610351562
1729696530845760300,2.00676025390625,-280.20001220703125,155.68125915527344,83.60625457763672
1729696530855760400,2.016760498046875,-279.9937744140625,155.77500915527344,83.4000015258789
1729696530865760300,2.02676025390625,-280.0875244140625,155.8125,83.3062515258789
1729696530875760400,2.036760498046875,-280.1812744140625,155.625,83.2125015258789
1729696530885760300,2.04676025390625,-279.9937744140625,155.49375915527344,83.00625610351562
1729696530895760400,2.056760498046875,-279.91876220703125,155.49375915527344,82.6875
1729696530905760300,2.06676025390625,-280.0687561035156,155.56875610351562,82.72500610351562
1729696530915760400,2.076760498046875,-280.1625061035156,155.8125,82.40625
1729696530925760300,2.08676025390625,-280.0875244140625,155.625,82.0875015258789
1729696530935760400,2.096760498046875,-279.8812561035156,155.6437530517578,82.125
1729696530945760300,2.10676025390625,-279.8625183105469,155.71875,81.9375
1729696530955760400,2.116760498046875,-279.8062744140625,155.7375030517578,81.69375610351562
1729696530965760300,2.12676025390625,-279.7687683105469,155.75625610351562,81.8062515258789
1729696530975760400,2.136760498046875,-279.84375,155.77500915527344,81.5625
1729696530985760300,2.14676025390625,-279.6937561035156,155.7375030517578,81.16875457763672
1729696530995760400,2.156760498046875,-279.54376220703125,155.79376220703125,81
1729696531005760300,2.16676025390625,-279.4125061035156,155.98126220703125,81.1500015258789
1729696531015760400,2.176760498046875,-279.5250244140625,155.96250915527344,81.11250305175781
1729696531025760300,2.18676025390625,-279.3187561035156,156.15000915527344,80.85000610351562
1729696531035760400,2.196760498046875,-279.3000183105469,156.33750915527344,80.7750015258789
1729696531045760300,2.20676025390625,-279.3000183105469,156.3000030517578,80.71875
1729696531055760400,2.216760498046875,-279.2250061035156,156.3000030517578,80.73750305175781
1729696531065760300,2.22676025390625,-279.4312744140625,156.2062530517578,80.94375610351562
1729696531075760400,2.236760498046875,-279.6187744140625,155.88751220703125,80.8125
1729696531085760300,2.24676025390625,-279.8812561035156,155.94375610351562,80.73750305175781
1729696531095760400,2.256760498046875,-279.84375,155.94375610351562,80.56875610351562
1729696531105760300,2.26676025390625,-280.0875244140625,155.8312530517578,80.625
1729696531115760400,2.276760498046875,-279.9562683105469,155.625,80.92500305175781
1729696531125760300,2.28676025390625,-279.7125244140625,155.66250610351562,80.6812515258789
1729696531135760400,2.296760498046875,-279.5625,155.5500030517578,80.79375457763672
1729696531145760300,2.30676025390625,-279.54376220703125,155.77500915527344,81.0562515258789
1729696531155760400,2.316760498046875,-279.54376220703125,156.03750610351562,81.30000305175781
1729696531165760300,2.32676025390625,-279.5062561035156,156.05625915527344,81.20625305175781
1729696531175760400,2.336760498046875,-279.5812683105469,156.03750610351562,81.28125
1729696531185760300,2.34676025390625,-279.35626220703125,155.88751220703125,81.48750305175781
1729696531195760400,2.356760498046875,-279.4312744140625,155.9250030517578,81.5625
1729696531205760300,2.36676025390625,-279.7875061035156,156.05625915527344,81.78750610351562
1729696531215760400,2.376760498046875,-279.9000244140625,156.05625915527344,82.01250457763672
1729696531225760300,2.38676025390625,-279.9375,156.03750610351562,81.75
1729696531235760400,2.396760498046875,-279.9375,156.03750610351562,81.9937515258789
1729696531245760300,2.40676025390625,-279.7687683105469,155.86875915527344,82.23750305175781
1729696531255760400,2.416760498046875,-279.73126220703125,155.88751220703125,82.44375610351562
1729696531265760300,2.42676025390625,-279.8062744140625,156.07501220703125,82.51875305175781
1729696531275760400,2.436760498046875,-279.82501220703125,156.13125610351562,82.57500457763672
1729696531285760300,2.44676025390625,-279.6750183105469,156.1125030517578,82.5562515258789
1729696531295760400,2.456760498046875,-279.54376220703125,156.26251220703125,82.38750457763672
1729696531305760300,2.46676025390625,-279.6000061035156,156.13125610351562,82.29375457763672
1729696531315760400,2.476760498046875,-279.46875,156.13125610351562,82.0875015258789
1729696531325760300,2.48676025390625,-279.54376220703125,156.28125,82.05000305175781
1729696531335760400,2.496760498046875,-279.6937561035156,156.45001220703125,81.75
1729696531345760300,2.50676025390625,-279.5250244140625,156.33750915527344,81.67500305175781
1729696531355760400,2.516760498046875,-279.4312744140625,156.3000030517578,81.48750305175781
1729696531365760300,2.52676025390625,-279.4125061035156,156.28125,81.41250610351562
1729696531375760400,2.536760498046875,-279.65625,156.26251220703125,81.58125305175781
1729696531385760300,2.54676025390625,-279.65625,156.3937530517578,81.76875305175781
1729696531395760400,2.556760498046875,-279.75,156.43125915527344,81.86250305175781
1729696531405760300,2.56676025390625,-279.6750183105469,156.22500610351562,81.65625
1729696531415760400,2.576760498046875,-279.6187744140625,156.03750610351562,81.65625
1729696531425760300,2.58676025390625,-279.6750183105469,156.07501220703125,81.75
1729696531435760400,2.596760498046875,-279.9562683105469,156.05625915527344,81.73125457763672
1729696531445760300,2.60676025390625,-280.1625061035156,156.16876220703125,81.86250305175781
1729696531455760400,2.616760498046875,-280.21875,156.09375,81.95625305175781
1729696531465760300,2.62676025390625,-280.0875244140625,155.90625,81.95625305175781
1729696531475760400,2.636760498046875,-279.9562683105469,155.8312530517578,82.0875015258789
1729696531485760300,2.64676025390625,-279.91876220703125,155.77500915527344,82.03125
1729696531495760400,2.656760498046875,-280.0500183105469,155.68125915527344,82.2750015258789
1729696531505760300,2.66676025390625,-280.20001220703125,155.75625610351562,81.97500610351562
1729696531515760400,2.676760498046875,-280.0875244140625,155.8125,82.0875015258789
1729696531525760300,2.68676025390625,-280.03125,155.8125,81.95625305175781
1729696531535760400,2.696760498046875,-279.7125244140625,155.68125915527344,81.78750610351562
1729696531545760300,2.70676025390625,-279.82501220703125,155.71875,81.86250305175781
1729696531555760400,2.716760498046875,-279.84375,155.47500610351562,81.69375610351562
1729696531565760300,2.72676025390625,-280.01251220703125,155.53125,81.84375
1729696531575760400,2.736760498046875,-279.8812561035156,155.53125,81.78750610351562
1729696531585760300,2.74676025390625,-279.8062744140625,155.3625030517578,82.125
1729696531595760400,2.756760498046875,-279.84375,155.49375915527344,81.86250305175781
1729696531605760300,2.76676025390625,-279.8062744140625,155.60626220703125,82.1812515258789
1729696531615760400,2.776760498046875,-280.0500183105469,155.8125,82.16250610351562
1729696531625760300,2.78676025390625,-279.91876220703125,155.90625,81.9000015258789
1729696531635760400,2.796760498046875,-280.0687561035156,156.1125030517578,81.9375
1729696531645760300,2.80676025390625,-279.82501220703125,156.13125610351562,82.03125
1729696531655760400,2.816760498046875,-279.8812561035156,156.31875610351562,82.0875015258789
1729696531665760300,2.82676025390625,-279.73126220703125,156.3937530517578,82.05000305175781
1729696531675760400,2.836760498046875,-279.73126220703125,156.1875,82.16250610351562
1729696531685760300,2.84676025390625,-279.75,155.98126220703125,81.84375
1729696531695760400,2.856760498046875,-279.65625,155.79376220703125,81.91875457763672
1729696531705760300,2.86676025390625,-279.6750183105469,155.625,82.0875015258789
1729696531715760400,2.876760498046875,-279.6750183105469,155.77500915527344,81.9000015258789
1729696531725760300,2.88676025390625,-279.8625183105469,155.77500915527344,81.7125015258789
1729696531735760400,2.896760498046875,-279.8812561035156,155.49375915527344,81.7125015258789
1729696531745760300,2.90676025390625,-280.1437683105469,155.47500610351562,81.3375015258789
1729696531755760400,2.916760498046875,-279.91876220703125,155.47500610351562,81.3375015258789
1729696531765760300,2.92676025390625,-279.73126220703125,155.41876220703125,81.39375305175781
1729696531775760400,2.936760498046875,-279.8062744140625,155.625,81.22500610351562
1729696531785760300,2.94676025390625,-279.9375,155.75625610351562,81.26250457763672
1729696531795760400,2.956760498046875,-279.82501220703125,155.40000915527344,81.3375015258789
1729696531805760300,2.96676025390625,-279.9562683105469,155.4562530517578,81.5250015258789
1729696531815760400,2.976760498046875,-279.9000244140625,155.41876220703125,81.5250015258789
1729696531825760300,2.98676025390625,-279.7687683105469,155.28750610351562,81.78750610351562
1729696531835760400,2.996760498046875,-279.82501220703125,155.34375,81.84375
1729696531845760300,3.00676025390625,-279.8625183105469,155.28750610351562,81.7125015258789
1729696531855760400,3.016760498046875,-279.8062744140625,155.28750610351562,81.9000015258789
1729696531865760300,3.02676025390625,-280.01251220703125,155.2687530517578,81.75
1729696531875760400,3.036760498046875,-280.2375183105469,155.3625030517578,81.86250305175781
1729696531885760300,3.04676025390625,-280.0875244140625,155.47500610351562,81.73125457763672
1729696531895760400,3.056760498046875,-280.20001220703125,155.66250610351562,81.5625
1729696531905760300,3.06676025390625,-280.20001220703125,155.8125,81.3375015258789
1729696531915760400,3.076760498046875,-280.2562561035156,155.68125915527344,81.20625305175781
1729696531925760300,3.08676025390625,-280.38751220703125,155.68125915527344,81.26250457763672
1729696531935760400,3.096760498046875,-280.5375061035156,155.47500610351562,81.07500457763672
1729696531945760300,3.10676025390625,-280.2375183105469,155.625,80.7750015258789
1729696531955760400,3.116760498046875,-280.20001220703125,155.7375030517578,80.64375305175781
1729696531965760300,3.12676025390625,-280.2375183105469,155.625,80.94375610351562
1729696531975760400,3.136760498046875,-280.2750244140625,155.8125,81.13125610351562
1729696531985760300,3.14676025390625,-280.5,155.71875,81.35625457763672
1729696531995760400,3.156760498046875,-280.57501220703125,155.86875915527344,81.35625457763672
1729696532005760300,3.16676025390625,-280.5,155.8312530517578,81.26250457763672
1729696532015760400,3.176760498046875,-280.2750244140625,155.96250915527344,81.41250610351562
1729696532025760300,3.18676025390625,-280.3687744140625,155.86875915527344,81.6187515258789
1729696532035760400,3.196760498046875,-280.2375183105469,155.8312530517578,81.60000610351562
1729696532045760300,3.20676025390625,-280.21875,155.75625610351562,81.31875610351562
1729696532055760400,3.216760498046875,-280.01251220703125,155.68125915527344,81.1500015258789
1729696532065760300,3.22676025390625,-279.84375,155.7375030517578,81.26250457763672
1729696532075760400,3.236760498046875,-279.8062744140625,155.58750915527344,81.28125
1729696532085760300,3.24676025390625,-279.75,155.7375030517578,81.46875
1729696532095760400,3.256760498046875,-279.84375,155.86875915527344,81.60000610351562
1729696532105760300,3.26676025390625,-279.7875061035156,155.79376220703125,81.9375
1729696532115760400,3.276760498046875,-279.73126220703125,155.8312530517578,82.06875610351562
1729696532125760300,3.28676025390625,-279.6000061035156,155.90625,82.33125305175781
1729696532135760400,3.296760498046875,-279.8812561035156,155.8125,82.38750457763672
1729696532145760300,3.30676025390625,-279.84375,155.88751220703125,82.33125305175781
1729696532155760400,3.316760498046875,-279.75,155.8312530517578,82.42500305175781
1729696532165760300,3.32676025390625,-279.84375,155.75625610351562,82.5
1729696532175760400,3.336760498046875,-279.7687683105469,155.5500030517578,82.29375457763672
1729696532185760300,3.34676025390625,-279.84375,155.6437530517578,82.10625457763672
1729696532195760400,3.356760498046875,-279.8062744140625,155.70001220703125,82.14375305175781
1729696532205760300,3.36676025390625,-280.01251220703125,155.66250610351562,81.9375
1729696532215760400,3.376760498046875,-279.8625183105469,155.6437530517578,81.9000015258789
1729696532225760300,3.38676025390625,-279.75,155.625,81.86250305175781
1729696532235760400,3.396760498046875,-279.91876220703125,155.79376220703125,81.69375610351562
1729696532245760300,3.40676025390625,-279.9937744140625,155.88751220703125,81.69375610351562
1729696532255760400,3.416760498046875,-280.29376220703125,155.96250915527344,81.63750457763672
1729696532265760300,3.42676025390625,-280.2562561035156,155.9250030517578,81.69375610351562
1729696532275760400,3.436760498046875,-280.3687744140625,155.77500915527344,81.45000457763672
1729696532285760300,3.44676025390625,-280.3125,155.68125915527344,81.35625457763672
1729696532295760400,3.456760498046875,-280.125,155.625,81.35625457763672
1729696532305760300,3.46676025390625,-280.10626220703125,155.68125915527344,81.3375015258789
1729696532315760400,3.476760498046875,-280.01251220703125,155.6437530517578,81.48750305175781
1729696532325760300,3.48676025390625,-279.9562683105469,155.47500610351562,81.31875610351562
1729696532335760400,3.496760498046875,-279.82501220703125,155.47500610351562,81.5625
1729696532345760300,3.50676025390625,-279.9375,155.21250915527344,81.31875610351562
1729696532355760400,3.516760498046875,-279.8812561035156,155.1750030517578,81.375
1729696532365760300,3.52676025390625,-279.8625183105469,155.15625,81.30000305175781
1729696532375760400,3.536760498046875,-280.0500183105469,155.11875915527344,81.375
1729696532385760300,3.54676025390625,-280.2750244140625,155.0625,81.07500457763672
1729696532395760400,3.556760498046875,-280.4437561035156,155.0812530517578,80.8125
1729696532405760300,3.56676025390625,-280.5375061035156,155.32501220703125,80.8687515258789
1729696532415760400,3.576760498046875,-280.5,155.41876220703125,80.625
1729696532425760300,3.58676025390625,-280.3500061035156,155.58750915527344,80.8125
1729696532435760400,3.596760498046875,-280.1812744140625,155.75625610351562,80.83125305175781
1729696532445760300,3.60676025390625,-280.38751220703125,155.96250915527344,81.13125610351562
1729696532455760400,3.616760498046875,-280.5375061035156,155.98126220703125,81.11250305175781
1729696532465760300,3.62676025390625,-280.5,156,81.39375305175781
1729696532475760400,3.636760498046875,-280.4250183105469,155.8312530517578,81.69375610351562
1729696532485760300,3.64676025390625,-280.21875,155.66250610351562,81.63750457763672
1729696532495760400,3.656760498046875,-280.29376220703125,155.49375915527344,81.7125015258789
1729696532505760300,3.66676025390625,-280.1812744140625,155.32501220703125,81.54375457763672
1729696532515760400,3.676760498046875,-280.21875,155.2687530517578,81.82500457763672
1729696532525760300,3.68676025390625,-279.91876220703125,155.11875915527344,81.69375610351562
1729696532535760400,3.696760498046875,-279.7875061035156,155.32501220703125,81.76875305175781
1729696532545760300,3.70676025390625,-279.63751220703125,155.25,81.88125610351562
1729696532555760400,3.716760498046875,-279.46875,155.1750030517578,81.9000015258789
1729696532565760300,3.72676025390625,-279.4312744140625,155.10000610351562,81.84375
1729696532575760400,3.736760498046875,-279.54376220703125,155.25,81.86250305175781
1729696532585760300,3.74676025390625,-279.5812683105469,155.4375,81.86250305175781
1729696532595760400,3.756760498046875,-279.65625,155.49375915527344,81.375
1729696532605760300,3.76676025390625,-279.73126220703125,155.4562530517578,81.35625457763672
1729696532615760400,3.776760498046875,-279.5625,155.15625,81.01875305175781
1729696532625760300,3.78676025390625,-279.7687683105469,155.23126220703125,80.8125
1729696532635760400,3.796760498046875,-279.9750061035156,155.2687530517578,80.75625610351562
1729696532645760300,3.80676025390625,-280.0687561035156,155.2687530517578,80.88750457763672
1729696532655760400,3.816760498046875,-279.9562683105469,155.32501220703125,80.7750015258789
1729696532665760300,3.82676025390625,-279.9937744140625,155.4375,80.7750015258789
1729696532675760400,3.836760498046875,-280.03125,155.30625915527344,80.85000610351562
1729696532685760300,3.84676025390625,-280.0875244140625,155.38125610351562,80.73750305175781
1729696532695760400,3.856760498046875,-280.1812744140625,155.4562530517578,80.94375610351562
1729696532705760300,3.86676025390625,-279.8812561035156,155.30625915527344,81.03750610351562
1729696532715760400,3.876760498046875,-279.7875061035156,155.60626220703125,80.88750457763672
1729696532725760300,3.88676025390625,-279.82501220703125,155.86875915527344,80.71875
1729696532735760400,3.896760498046875,-279.7125244140625,155.85000610351562,80.83125305175781
1729696532745760300,3.90676025390625,-279.5812683105469,155.71875,80.9625015258789
1729696532755760400,3.916760498046875,-279.5812683105469,155.79376220703125,81.3375015258789
1729696532765760300,3.92676025390625,-279.375,155.85000610351562,81.48750305175781
1729696532775760400,3.936760498046875,-279.4312744140625,155.85000610351562,81.4312515258789
1729696532785760300,3.94676025390625,-279.73126220703125,156.0187530517578,81.63750457763672
1729696532795760400,3.956760498046875,-279.65625,155.94375610351562,81.7125015258789
1729696532805760300,3.96676025390625,-279.7875061035156,155.77500915527344,81.8062515258789
1729696532815760400,3.976760498046875,-279.91876220703125,155.47500610351562,81.78750610351562
1729696532825760300,3.98676025390625,-280.0500183105469,155.51251220703125,81.9000015258789
1729696532835760400,3.996760498046875,-280.03125,155.58750915527344,81.58125305175781
1729696532845760300,4.00676025390625,-279.9562683105469,155.58750915527344,81.50625610351562
1729696532855760400,4.016760498046875,-279.8625183105469,155.66250610351562,81.7125015258789
1729696532865760300,4.02676025390625,-279.65625,155.7375030517578,81.54375457763672
1729696532875760400,4.036760498046875,-279.8812561035156,155.53125,81.75
1729696532885760300,4.04676025390625,-279.5812683105469,155.49375915527344,81.8062515258789
1729696532895760400,4.056760498046875,-279.6187744140625,155.79376220703125,81.78750610351562
1729696532905760300,4.06676025390625,-279.6937561035156,155.68125915527344,81.6187515258789
1729696532915760400,4.076760498046875,-279.8062744140625,155.60626220703125,81.86250305175781
1729696532925760300,4.08676025390625,-280.0687561035156,155.41876220703125,81.82500457763672
1729696532935760400,4.096760498046875,-280.125,155.41876220703125,81.73125457763672
1729696532945760300,4.10676025390625,-280.0687561035156,155.21250915527344,81.67500305175781
1729696532955760400,4.116760498046875,-280.01251220703125,155.30625915527344,81.45000457763672
1729696532965760300,4.12676025390625,-280.21875,155.47500610351562,81.58125305175781
1729696532975760400,4.136760498046875,-280.0500183105469,155.41876220703125,81.78750610351562
1729696532985760300,4.14676025390625,-280.01251220703125,155.4562530517578,81.95625305175781
1729696532995760400,4.156760498046875,-279.82501220703125,155.40000915527344,81.9375
1729696533005760300,4.16676025390625,-279.91876220703125,155.60626220703125,82.03125
1729696533015760400,4.176760498046875,-279.91876220703125,155.5500030517578,82.125
1729696533025760300,4.18676025390625,-280.01251220703125,155.6437530517578,82.16250610351562
1729696533035760400,4.196760498046875,-279.9375,155.6437530517578,82.29375457763672
1729696533045760300,4.20676025390625,-280.01251220703125,155.49375915527344,82.3125
1729696533055760400,4.216760498046875,-280.0500183105469,155.28750610351562,82.23750305175781
1729696533065760300,4.22676025390625,-280.1812744140625,155.38125610351562,82.05000305175781
1729696533075760400,4.236760498046875,-280.4437561035156,155.51251220703125,81.8062515258789
1729696533085760300,4.24676025390625,-280.2750244140625,155.32501220703125,81.8062515258789
1729696533095760400,4.256760498046875,-280.29376220703125,155.34375,81.73125457763672
1729696533105760300,4.26676025390625,-280.29376220703125,155.34375,81.6187515258789
1729696533115760400,4.276760498046875,-280.2562561035156,155.3625030517578,81.41250610351562
1729696533125760300,4.28676025390625,-280.01251220703125,155.41876220703125,81.11250305175781
1729696533135760400,4.296760498046875,-279.9375,155.58750915527344,81.03750610351562
1729696533145760300,4.30676025390625,-279.82501220703125,155.6437530517578,81.1875
1729696533155760400,4.316760498046875,-279.7687683105469,155.6437530517578,81.46875
1729696533165760300,4.32676025390625,-279.84375,155.75625610351562,81.30000305175781
1729696533175760400,4.336760498046875,-279.63751220703125,155.625,81.45000457763672
1729696533185760300,4.34676025390625,-279.7125244140625,155.47500610351562,81.35625457763672
1729696533195760400,4.356760498046875,-279.7687683105469,155.47500610351562,81.63750457763672
1729696533205760300,4.36676025390625,-279.7125244140625,155.53125,81.9000015258789
1729696533215760400,4.376760498046875,-279.8062744140625,155.53125,81.95625305175781
1729696533225760300,4.38676025390625,-279.6750183105469,155.34375,82.05000305175781
1729696533235760400,4.396760498046875,-279.63751220703125,155.41876220703125,81.76875305175781
1729696533245760300,4.40676025390625,-279.5812683105469,155.38125610351562,82.01250457763672
1729696533255760400,4.416760498046875,-279.8062744140625,155.51251220703125,82.05000305175781
1729696533265760300,4.42676025390625,-279.73126220703125,155.53125,82.23750305175781
1729696533275760400,4.436760498046875,-279.5250244140625,155.51251220703125,82.05000305175781
1729696533285760300,4.44676025390625,-279.63751220703125,155.28750610351562,81.91875457763672
1729696533295760400,4.456760498046875,-279.5062561035156,155.2687530517578,81.84375
1729696533305760300,4.46676025390625,-279.6000061035156,155.2687530517578,81.67500305175781
1729696533315760400,4.476760498046875,-279.375,155.34375,81.78750610351562
1729696533325760300,4.48676025390625,-279.45001220703125,155.4375,81.69375610351562
1729696533335760400,4.496760498046875,-279.35626220703125,155.49375915527344,81.45000457763672
1729696533345760300,4.50676025390625,-279.5062561035156,155.625,81.54375457763672
1729696533355760400,4.516760498046875,-279.7125244140625,155.60626220703125,81.8062515258789
1729696533365760300,4.52676025390625,-279.8062744140625,155.60626220703125,81.84375
1729696533375760400,4.536760498046875,-280.0500183105469,155.70001220703125,82.0875015258789
1729696533385760300,4.54676025390625,-280.3500061035156,155.66250610351562,82.16250610351562
1729696533395760400,4.556760498046875,-280.4250183105469,155.53125,82.23750305175781
1729696533405760300,4.56676025390625,-280.5,155.40000915527344,82.21875
1729696533415760400,4.576760498046875,-280.7062683105469,155.25,82.1812515258789
1729696533425760300,4.58676025390625,-280.7437744140625,155.2687530517578,82.14375305175781
1729696533435760400,4.596760498046875,-280.7437744140625,155.30625915527344,81.86250305175781
1729696533445760300,4.60676025390625,-280.4250183105469,155.30625915527344,81.9937515258789
1729696533455760400,4.616760498046875,-280.3687744140625,155.15625,81.67500305175781
1729696533465760300,4.62676025390625,-280.01251220703125,155.4375,81.63750457763672
1729696533475760400,4.636760498046875,-280.1812744140625,155.32501220703125,81.4312515258789
1729696533485760300,4.64676025390625,-280.0875244140625,155.40000915527344,81.58125305175781
1729696533495760400,4.656760498046875,-279.84375,155.41876220703125,81.63750457763672
1729696533505760300,4.66676025390625,-279.75,155.32501220703125,81.60000610351562
1729696533515760400,4.676760498046875,-279.5812683105469,155.2687530517578,81.7125015258789
1729696533525760300,4.68676025390625,-279.91876220703125,155.38125610351562,81.60000610351562
1729696533535760400,4.696760498046875,-279.7875061035156,155.5500030517578,81.8062515258789
1729696533545760300,4.70676025390625,-279.8062744140625,155.41876220703125,82.0875015258789
1729696533555760400,4.716760498046875,-279.9750061035156,155.4562530517578,82.25625610351562
1729696533565760300,4.72676025390625,-279.6187744140625,155.38125610351562,82.125
1729696533575760400,4.736760498046875,-279.7875061035156,155.47500610351562,82.23750305175781
1729696533585760300,4.74676025390625,-279.82501220703125,155.41876220703125,82.20000457763672
1729696533595760400,4.756760498046875,-279.9000244140625,155.41876220703125,82.25625610351562
1729696533605760300,4.76676025390625,-279.84375,155.51251220703125,82.3125
1729696533615760400,4.776760498046875,-279.82501220703125,155.49375915527344,82.16250610351562
1729696533625760300,4.78676025390625,-279.9375,155.40000915527344,81.60000610351562
1729696533635760400,4.796760498046875,-279.5250244140625,155.40000915527344,81.50625610351562
1729696533645760300,4.80676025390625,-279.82501220703125,155.53125,81.67500305175781
1729696533655760400,4.816760498046875,-279.6937561035156,155.56875610351562,81.54375457763672
1729696533665760300,4.82676025390625,-279.5812683105469,155.75625610351562,81.45000457763672
1729696533675760400,4.836760498046875,-279.6000061035156,155.8125,81.46875
1729696533685760300,4.84676025390625,-279.5250244140625,155.79376220703125,81.39375305175781
1729696533695760400,4.856760498046875,-279.6187744140625,155.7375030517578,81.5250015258789
1729696533705760300,4.86676025390625,-279.73126220703125,155.88751220703125,81.76875305175781
1729696533715760400,4.876760498046875,-280.03125,156.1125030517578,81.7125015258789
1729696533725760300,4.88676025390625,-279.91876220703125,156.28125,81.5250015258789
1729696533735760400,4.896760498046875,-279.9000244140625,156.16876220703125,81.63750457763672
1729696533745760300,4.90676025390625,-279.9750061035156,155.8312530517578,81.97500610351562
1729696533755760400,4.916760498046875,-280.01251220703125,155.8312530517578,81.76875305175781
1729696533765760300,4.92676025390625,-280.01251220703125,155.77500915527344,81.67500305175781
1729696533775760400,4.936760498046875,-279.82501220703125,156.03750610351562,81.54375457763672
1729696533785760300,4.94676025390625,-279.5625,155.9250030517578,81.6187515258789
1729696533795760400,4.956760498046875,-279.5062561035156,155.8125,81.84375
1729696533805760300,4.96676025390625,-279.7875061035156,155.6437530517578,82.125
1729696533815760400,4.976760498046875,-279.6750183105469,155.75625610351562,81.9937515258789
1729696533825760300,4.98676025390625,-279.7687683105469,155.88751220703125,81.76875305175781
1729696533835760400,4.996760498046875,-279.6000061035156,155.90625,81.88125610351562
1729696533845760300,5.00676025390625,-279.45001220703125,155.8125,81.95625305175781
1729696533855760400,5.016760498046875,-279.6750183105469,155.47500610351562,81.97500610351562
1729696533865760300,5.02676025390625,-279.6937561035156,155.4562530517578,81.9375
1729696533875760400,5.036760498046875,-279.6750183105469,155.47500610351562,81.91875457763672
1729696533885760300,5.04676025390625,-279.375,155.40000915527344,81.76875305175781
1729696533895760400,5.056760498046875,-279.5250244140625,155.47500610351562,82.01250457763672
1729696533905760300,5.06676025390625,-279.16876220703125,155.49375915527344,81.97500610351562
1729696533915760400,5.076760498046875,-279.2062683105469,155.34375,81.84375
1729696533925760300,5.08676025390625,-279.4125061035156,155.4562530517578,81.76875305175781
1729696533935760400,5.096760498046875,-279.1875,155.66250610351562,81.88125610351562
1729696533945760300,5.10676025390625,-279.1500244140625,155.77500915527344,81.97500610351562
1729696533955760400,5.116760498046875,-279.16876220703125,155.56875610351562,81.88125610351562
1729696533965760300,5.12676025390625,-279.3000183105469,155.60626220703125,81.65625
1729696533975760400,5.136760498046875,-279.28125,155.56875610351562,81.3375015258789
1729696533985760300,5.14676025390625,-279.5250244140625,155.75625610351562,81.50625610351562
1729696533995760400,5.156760498046875,-279.63751220703125,155.94375610351562,81.4312515258789
1729696534005760300,5.16676025390625,-279.6187744140625,156.13125610351562,81.5625
1729696534015760400,5.176760498046875,-279.5812683105469,156.16876220703125,81.3375015258789
1729696534025760300,5.18676025390625,-279.5062561035156,156.15000915527344,81.11250305175781
1729696534035760400,5.196760498046875,-279.4875183105469,156.46875,81.2437515258789
1729696534045760300,5.20676025390625,-279.26251220703125,156.50625610351562,81.28125
1729696534055760400,5.216760498046875,-279.3375244140625,156.375,81.1875
1729696534065760300,5.22676025390625,-279.1312561035156,156.35626220703125,81.07500457763672
1729696534075760400,5.236760498046875,-279.1125183105469,156.26251220703125,81.01875305175781
1729696534085760300,5.24676025390625,-279.0375061035156,156.0187530517578,81.0562515258789
1729696534095760400,5.256760498046875,-279.375,155.75625610351562,81.22500610351562
1729696534105760300,5.26676025390625,-279.75,155.58750915527344,81.35625457763672
1729696534115760400,5.276760498046875,-279.65625,155.23126220703125,81.28125
1729696534125760300,5.28676025390625,-279.82501220703125,155.1750030517578,81.30000305175781
1729696534135760400,5.296760498046875,-279.75,155.34375,81.30000305175781
1729696534145760300,5.30676025390625,-279.7875061035156,155.38125610351562,81.2437515258789
1729696534155760400,5.316760498046875,-279.9937744140625,155.4562530517578,81.35625457763672
1729696534165760300,5.32676025390625,-279.7687683105469,155.58750915527344,81.20625305175781
1729696534175760400,5.336760498046875,-279.7125244140625,155.6437530517578,81.11250305175781
1729696534185760300,5.34676025390625,-279.45001220703125,155.90625,81.11250305175781
1729696534195760400,5.356760498046875,-279.54376220703125,156.26251220703125,81
1729696534205760300,5.36676025390625,-279.6000061035156,156.50625610351562,81.03750610351562
1729696534215760400,5.376760498046875,-279.5625,156.33750915527344,81.13125610351562
1729696534225760300,5.38676025390625,-279.54376220703125,156.22500610351562,81.1500015258789
1729696534235760400,5.396760498046875,-279.3375244140625,156.28125,81.26250457763672
1729696534245760300,5.40676025390625,-279.5250244140625,156.28125,81.3375015258789
1729696534255760400,5.416760498046875,-279.28125,156.26251220703125,81.375
1729696534265760300,5.42676025390625,-279.3187561035156,156.0187530517578,81.26250457763672
1729696534275760400,5.436760498046875,-279.0375061035156,155.9250030517578,81.09375
1729696534285760300,5.44676025390625,-278.8687744140625,155.7375030517578,81.03750610351562
1729696534295760400,5.456760498046875,-279,155.79376220703125,80.94375610351562
1729696534305760300,5.46676025390625,-279.3000183105469,155.70001220703125,80.98125457763672
1729696534315760400,5.476760498046875,-279.16876220703125,155.625,80.98125457763672
1729696534325760300,5.48676025390625,-279.28125,155.5500030517578,81.03750610351562
1729696534335760400,5.496760498046875,-279.5062561035156,155.60626220703125,80.98125457763672
1729696534345760300,5.50676025390625,-279.63751220703125,155.9250030517578,81.01875305175781
1729696534355760400,5.516760498046875,-279.84375,155.96250915527344,81.31875610351562
1729696534365760300,5.52676025390625,-279.9750061035156,155.85000610351562,81.30000305175781
1729696534375760400,5.536760498046875,-279.91876220703125,155.71875,81.28125
1729696534385760300,5.54676025390625,-279.91876220703125,155.8312530517578,81.3375015258789
1729696534395760400,5.556760498046875,-280.2562561035156,155.8312530517578,81.3375015258789
1729696534405760300,5.56676025390625,-280.4250183105469,155.8312530517578,81.3375015258789
1729696534415760400,5.576760498046875,-280.4625244140625,155.79376220703125,81.09375
1729696534425760300,5.58676025390625,-280.4437561035156,155.56875610351562,81.09375
1729696534435760400,5.596760498046875,-280.4437561035156,155.66250610351562,80.9625015258789
1729696534445760300,5.60676025390625,-280.1625061035156,155.77500915527344,81.03750610351562
1729696534455760400,5.616760498046875,-279.91876220703125,155.9250030517578,81.1875
1729696534465760300,5.62676025390625,-279.6000061035156,156.16876220703125,81.16875457763672
1729696534475760400,5.636760498046875,-279.375,156.2062530517578,81.1500015258789
1729696534485760300,5.64676025390625,-279.1875,156.1875,81
1729696534495760400,5.656760498046875,-279.1312561035156,156.2062530517578,81.26250457763672
1729696534505760300,5.66676025390625,-279.0375061035156,156.1125030517578,81.4312515258789
1729696534515760400,5.676760498046875,-278.98126220703125,155.77500915527344,81.54375457763672
1729696534525760300,5.68676025390625,-279.3000183105469,155.68125915527344,81.76875305175781
1729696534535760400,5.696760498046875,-279.6187744140625,155.68125915527344,81.76875305175781
1729696534545760300,5.70676025390625,-279.65625,155.58750915527344,81.67500305175781
1729696534555760400,5.716760498046875,-279.4875183105469,155.70001220703125,81.65625
1729696534565760300,5.72676025390625,-279.2250061035156,155.7375030517578,81.84375
1729696534575760400,5.736760498046875,-279.0562744140625,155.66250610351562,81.75
1729696534585760300,5.74676025390625,-278.9625244140625,155.79376220703125,81.48750305175781
1729696534595760400,5.756760498046875,-278.9250183105469,155.94375610351562,81.60000610351562
1729696534605760300,5.76676025390625,-278.70001220703125,156,81.46875
1729696534615760400,5.776760498046875,-278.4937744140625,156.0187530517578,81.48750305175781
1729696534625760300,5.78676025390625,-278.3812561035156,155.85000610351562,81.46875
1729696534635760400,5.796760498046875,-278.6812744140625,155.85000610351562,81.54375457763672
1729696534645760300,5.80676025390625,-278.9625244140625,155.79376220703125,81.63750457763672
1729696534655760400,5.816760498046875,-279.07501220703125,155.9250030517578,81.91875457763672
1729696534665760300,5.82676025390625,-279.0562744140625,155.90625,82.03125
1729696534675760400,5.836760498046875,-278.8687744140625,156,81.84375
1729696534685760300,5.84676025390625,-279,156.05625915527344,81.86250305175781
1729696534695760400,5.856760498046875,-279.1500244140625,156.15000915527344,81.9000015258789
1729696534705760300,5.86676025390625,-279.35626220703125,156.05625915527344,82.125
1729696534715760400,5.876760498046875,-279.2437744140625,155.8125,82.06875610351562
1729696534725760300,5.88676025390625,-279.1125183105469,155.77500915527344,81.97500610351562
1729696534735760400,5.896760498046875,-279.2250061035156,155.88751220703125,81.84375
1729696534745760300,5.90676025390625,-279.3375244140625,156,81.76875305175781
1729696534755760400,5.916760498046875,-279.5812683105469,155.8312530517578,81.9000015258789
1729696534765760300,5.92676025390625,-279.45001220703125,155.85000610351562,81.88125610351562
1729696534775760400,5.936760498046875,-279.4875183105469,155.77500915527344,81.9000015258789
1729696534785760300,5.94676025390625,-279.5625,155.98126220703125,81.9000015258789
1729696534795760400,5.956760498046875,-279.6937561035156,156.15000915527344,82.03125
1729696534805760300,5.96676025390625,-279.63751220703125,156.15000915527344,81.78750610351562
1729696534815760400,5.976760498046875,-279.65625,156.26251220703125,81.67500305175781
1729696534825760300,5.98676025390625,-279.6000061035156,156.13125610351562,81.8062515258789
1729696534835760400,5.996760498046875,-279.54376220703125,156.28125,81.6187515258789
1729696534845760300,6.00676025390625,-279.4312744140625,156.3000030517578,81.63750457763672
1729696534855760400,6.016760498046875,-279.2437744140625,156.31875610351562,81.8062515258789
1729696534865760300,6.02676025390625,-279.1125183105469,156.24375915527344,81.7125015258789
1729696534875760400,6.036760498046875,-279.0187683105469,156.31875610351562,81.46875
1729696534885760300,6.04676025390625,-279.1125183105469,156.1875,81.63750457763672
1729696534895760400,6.056760498046875,-278.8312683105469,156.0187530517578,81.69375610351562
1729696534905760300,6.06676025390625,-279.0187683105469,156,81.84375
1729696534915760400,6.076760498046875,-279.07501220703125,156.1125030517578,81.86250305175781
1729696534925760300,6.08676025390625,-279.28125,155.98126220703125,81.86250305175781
1729696534935760400,6.096760498046875,-279.3000183105469,155.96250915527344,81.6187515258789
1729696534945760300,6.10676025390625,-279.26251220703125,155.88751220703125,81.69375610351562
1729696534955760400,6.116760498046875,-279.3187561035156,155.77500915527344,81.88125610351562
1729696534965760300,6.12676025390625,-279.2250061035156,156,81.82500457763672
1729696534975760400,6.136760498046875,-279.4312744140625,156.07501220703125,81.84375
1729696534985760300,6.14676025390625,-279.3000183105469,155.9250030517578,81.65625
1729696534995760400,6.156760498046875,-279.2062683105469,155.71875,81.75
1729696535005760300,6.16676025390625,-279.2062683105469,155.8312530517578,81.67500305175781
1729696535015760400,6.176760498046875,-279.3937683105469,155.7375030517578,81.88125610351562
1729696535025760300,6.18676025390625,-279.3187561035156,155.8312530517578,81.76875305175781
1729696535035760400,6.196760498046875,-279.26251220703125,155.6437530517578,81.73125457763672
1729696535045760300,6.20676025390625,-279.375,155.66250610351562,81.9375
1729696535055760400,6.216760498046875,-279.1875,155.53125,81.75
1729696535065760300,6.22676025390625,-279.09375,155.68125915527344,81.8062515258789
1729696535075760400,6.236760498046875,-279.3187561035156,155.75625610351562,81.65625
1729696535085760300,6.24676025390625,-279.3187561035156,155.625,81.69375610351562
1729696535095760400,6.256760498046875,-279.1500244140625,155.5500030517578,81.54375457763672
1729696535105760300,6.26676025390625,-279.3375244140625,155.4562530517578,81.45000457763672
1729696535115760400,6.276760498046875,-279.16876220703125,155.625,81.30000305175781
1729696535125760300,6.28676025390625,-279,155.85000610351562,81.1875
1729696535135760400,6.296760498046875,-279.1312561035156,155.85000610351562,81.2437515258789
1729696535145760300,6.30676025390625,-279.26251220703125,155.8312530517578,81.09375
1729696535155760400,6.316760498046875,-278.9625244140625,155.77500915527344,81.01875305175781
1729696535165760300,6.32676025390625,-278.9625244140625,155.90625,80.6812515258789
1729696535175760400,6.336760498046875,-278.79376220703125,156.03750610351562,80.53125
1729696535185760300,6.34676025390625,-278.6437683105469,156.2062530517578,80.625
1729696535195760400,6.356760498046875,-278.71875,156.16876220703125,80.8687515258789
1729696535205760300,6.36676025390625,-278.9437561035156,155.9250030517578,80.85000610351562
1729696535215760400,6.376760498046875,-279.0375061035156,155.88751220703125,80.92500305175781
1729696535225760300,6.38676025390625,-279.1125183105469,155.66250610351562,81.16875457763672
1729696535235760400,6.396760498046875,-279.35626220703125,155.625,81.45000457763672
1729696535245760300,6.40676025390625,-279.3000183105469,155.68125915527344,81.75
1729696535255760400,6.416760498046875,-279.4312744140625,155.86875915527344,81.9000015258789
1729696535265760300,6.42676025390625,-279.6000061035156,155.66250610351562,81.9375
1729696535275760400,6.436760498046875,-279.82501220703125,155.75625610351562,81.7125015258789
1729696535285760300,6.44676025390625,-279.63751220703125,155.75625610351562,81.7125015258789
1729696535295760400,6.456760498046875,-279.46875,155.6437530517578,81.86250305175781
1729696535305760300,6.46676025390625,-279.375,155.88751220703125,81.8062515258789
1729696535315760400,6.476760498046875,-279.2250061035156,155.94375610351562,81.65625
1729696535325760300,6.48676025390625,-279.1875,155.85000610351562,81.82500457763672
1729696535335760400,6.496760498046875,-279.0375061035156,155.68125915527344,81.69375610351562
1729696535345760300,6.50676025390625,-278.9437561035156,155.8125,81.75
1729696535355760400,6.516760498046875,-278.9437561035156,155.86875915527344,81.7125015258789
1729696535365760300,6.52676025390625,-278.9250183105469,155.98126220703125,81.76875305175781
1729696535375760400,6.536760498046875,-278.98126220703125,156.26251220703125,81.5625
1729696535385760300,6.54676025390625,-279.09375,156.28125,81.35625457763672
1729696535395760400,6.556760498046875,-278.88751220703125,156.43125915527344,81.4312515258789
1729696535405760300,6.56676025390625,-278.9250183105469,156.52500915527344,81.4312515258789
1729696535415760400,6.576760498046875,-279.1125183105469,156.52500915527344,81.39375305175781
1729696535425760300,6.58676025390625,-279.0562744140625,156.24375915527344,81.31875610351562
1729696535435760400,6.596760498046875,-278.8500061035156,156.1875,81.41250610351562
1729696535445760300,6.60676025390625,-278.9625244140625,156.09375,81.1875
1729696535455760400,6.616760498046875,-279.0562744140625,155.8125,81.28125
1729696535465760300,6.62676025390625,-278.9625244140625,155.66250610351562,81.39375305175781
1729696535475760400,6.636760498046875,-279.2250061035156,155.7375030517578,81.31875610351562
1729696535485760300,6.64676025390625,-279.26251220703125,155.75625610351562,81.11250305175781
1729696535495760400,6.656760498046875,-279.16876220703125,155.79376220703125,81.20625305175781
1729696535505760300,6.66676025390625,-279.26251220703125,156.05625915527344,81.13125610351562
1729696535515760400,6.676760498046875,-279.4125061035156,156,81.1500015258789
1729696535525760300,6.68676025390625,-279.4125061035156,155.94375610351562,81.1500015258789
1729696535535760400,6.696760498046875,-279.2437744140625,156.09375,81.1500015258789
1729696535545760300,6.70676025390625,-279.1312561035156,156.28125,80.98125457763672
1729696535555760400,6.716760498046875,-279.0562744140625,156.26251220703125,81.0562515258789
1729696535565760300,6.72676025390625,-279.09375,156.09375,81.1500015258789
1729696535575760400,6.736760498046875,-278.98126220703125,155.94375610351562,81.26250457763672
1729696535585760300,6.74676025390625,-278.90625,156,81.1500015258789
1729696535595760400,6.756760498046875,-278.7375183105469,156.0187530517578,80.9625015258789
1729696535605760300,6.76676025390625,-278.71875,155.90625,81.3375015258789
1729696535615760400,6.776760498046875,-278.5875244140625,155.8125,81.09375
1729696535625760300,6.78676025390625,-278.79376220703125,155.70001220703125,81.1875
1729696535635760400,6.796760498046875,-278.9250183105469,155.58750915527344,81.26250457763672
1729696535645760300,6.80676025390625,-278.8125,155.77500915527344,81.26250457763672
1729696535655760400,6.816760498046875,-279.0562744140625,155.9250030517578,81.375
1729696535665760300,6.82676025390625,-279.2062683105469,155.98126220703125,81.46875
1729696535675760400,6.836760498046875,-279,156,81.67500305175781
1729696535685760300,6.84676025390625,-279.09375,156.1875,81.3375015258789
1729696535695760400,6.856760498046875,-279.1312561035156,156.3937530517578,81.5250015258789
1729696535705760300,6.86676025390625,-278.90625,156.3937530517578,81.5250015258789
1729696535715760400,6.876760498046875,-278.79376220703125,156.22500610351562,81.41250610351562
1729696535725760300,6.88676025390625,-278.88751220703125,155.8125,81.26250457763672
1729696535735760400,6.896760498046875,-278.6625061035156,155.66250610351562,80.90625
1729696535745760300,6.90676025390625,-278.4375,155.47500610351562,80.8687515258789
1729696535755760400,6.916760498046875,-278.5500183105469,155.58750915527344,80.75625610351562
1729696535765760300,6.92676025390625,-278.5875244140625,155.40000915527344,80.94375610351562
1729696535775760400,6.936760498046875,-278.6437683105469,155.34375,80.73750305175781
1729696535785760300,6.94676025390625,-278.8125,155.2687530517578,80.71875
1729696535795760400,6.956760498046875,-278.8312683105469,155.40000915527344,80.75625610351562
1729696535805760300,6.96676025390625,-278.7375183105469,155.5500030517578,80.79375457763672
1729696535815760400,6.976760498046875,-278.9625244140625,155.58750915527344,80.98125457763672
1729696535825760300,6.98676025390625,-278.9625244140625,155.58750915527344,81.01875305175781
1729696535835760400,6.996760498046875,-279.0375061035156,155.38125610351562,81.01875305175781
1729696535845760300,7.00676025390625,-278.90625,155.56875610351562,80.88750457763672
1729696535855760400,7.016760498046875,-278.90625,155.66250610351562,80.98125457763672
1729696535865760300,7.02676025390625,-278.8687744140625,155.77500915527344,81.09375
1729696535875760400,7.036760498046875,-278.8500061035156,155.6437530517578,81.0562515258789
1729696535885760300,7.04676025390625,-278.70001220703125,155.7375030517578,81
1729696535895760400,7.056760498046875,-278.625,155.85000610351562,80.98125457763672
1729696535905760300,7.06676025390625,-278.8687744140625,155.77500915527344,81.07500457763672
1729696535915760400,7.076760498046875,-279,156,81.26250457763672
1729696535925760300,7.08676025390625,-279.0187683105469,155.94375610351562,81.3375015258789
1729696535935760400,7.096760498046875,-278.88751220703125,155.77500915527344,81.7125015258789
1729696535945760300,7.10676025390625,-278.8125,155.60626220703125,81.60000610351562
1729696535955760400,7.116760498046875,-279.0375061035156,155.8312530517578,81.60000610351562
1729696535965760300,7.12676025390625,-279.16876220703125,155.71875,81.5250015258789
1729696535975760400,7.136760498046875,-279,155.75625610351562,81.60000610351562
1729696535985760300,7.14676025390625,-278.6625061035156,155.98126220703125,81.60000610351562
1729696535995760400,7.156760498046875,-278.51251220703125,155.77500915527344,81.58125305175781
1729696536005760300,7.16676025390625,-278.41876220703125,155.9250030517578,81.60000610351562
1729696536015760400,7.176760498046875,-278.41876220703125,156.03750610351562,81.13125610351562
1729696536025760300,7.18676025390625,-278.4375,155.96250915527344,80.98125457763672
1729696536035760400,7.196760498046875,-278.3812561035156,155.90625,80.8125
1729696536045760300,7.20676025390625,-278.51251220703125,156.1875,81.01875305175781
1729696536055760400,7.216760498046875,-278.90625,156.09375,80.75625610351562
1729696536065760300,7.22676025390625,-279.0187683105469,155.96250915527344,80.70000457763672
1729696536075760400,7.236760498046875,-279.07501220703125,155.96250915527344,80.55000305175781
1729696536085760300,7.24676025390625,-279.0187683105469,155.88751220703125,80.625
1729696536095760400,7.256760498046875,-279.2062683105469,155.66250610351562,80.71875
1729696536105760300,7.26676025390625,-279.16876220703125,155.85000610351562,80.9625015258789
1729696536115760400,7.276760498046875,-279.0375061035156,155.8125,81.13125610351562
1729696536125760300,7.28676025390625,-278.88751220703125,155.70001220703125,81.11250305175781
1729696536135760400,7.296760498046875,-278.4562683105469,155.70001220703125,81.1500015258789
1729696536145760300,7.30676025390625,-278.51251220703125,155.71875,81.28125
1729696536155760400,7.316760498046875,-278.4937744140625,155.8312530517578,81.45000457763672
1729696536165760300,7.32676025390625,-278.4750061035156,155.86875915527344,81.22500610351562
1729696536175760400,7.336760498046875,-278.34375,156.05625915527344,81.26250457763672
1729696536185760300,7.34676025390625,-278.2687683105469,156.03750610351562,81.28125
1729696536195760400,7.356760498046875,-278.3062744140625,155.94375610351562,81.45000457763672
1729696536205760300,7.36676025390625,-278.3625183105469,155.8125,81.2437515258789
1729696536215760400,7.376760498046875,-278.625,155.7375030517578,81.28125
1729696536225760300,7.38676025390625,-278.60626220703125,155.5500030517578,81.13125610351562
1729696536235760400,7.396760498046875,-278.3812561035156,155.625,80.92500305175781
1729696536245760300,7.40676025390625,-278.60626220703125,155.41876220703125,80.98125457763672
1729696536255760400,7.416760498046875,-278.8687744140625,155.2687530517578,80.94375610351562
1729696536265760300,7.42676025390625,-279.0375061035156,155.28750610351562,80.94375610351562
1729696536275760400,7.436760498046875,-278.9625244140625,155.5500030517578,80.60625457763672
1729696536285760300,7.44676025390625,-279.0375061035156,155.60626220703125,80.71875
1729696536295760400,7.456760498046875,-278.9250183105469,155.71875,80.51250457763672
1729696536305760300,7.46676025390625,-279.1312561035156,155.98126220703125,80.36250305175781
1729696536315760400,7.476760498046875,-279.5625,155.77500915527344,80.41875457763672
1729696536325760300,7.48676025390625,-279.4125061035156,155.86875915527344,80.4937515258789
1729696536335760400,7.496760498046875,-279.1125183105469,155.88751220703125,80.41875457763672
1729696536345760300,7.50676025390625,-279.2062683105469,155.70001220703125,80.4937515258789
1729696536355760400,7.516760498046875,-279.07501220703125,155.6437530517578,80.4000015258789
1729696536365760300,7.52676025390625,-279.1500244140625,155.71875,80.56875610351562
1729696536375760400,7.536760498046875,-279.35626220703125,155.71875,80.85000610351562
1729696536385760300,7.54676025390625,-279.0562744140625,155.68125915527344,80.90625
1729696536395760400,7.556760498046875,-278.70001220703125,155.8125,80.88750457763672
1729696536405760300,7.56676025390625,-278.6812744140625,155.8312530517578,80.7750015258789
1729696536415760400,7.576760498046875,-278.79376220703125,155.86875915527344,80.79375457763672
1729696536425760300,7.58676025390625,-278.6812744140625,156.2062530517578,80.55000305175781
1729696536435760400,7.596760498046875,-278.71875,156.13125610351562,80.83125305175781
1729696536445760300,7.60676025390625,-278.53125,156.03750610351562,80.5875015258789
1729696536455760400,7.616760498046875,-278.41876220703125,155.88751220703125,80.45625305175781
1729696536465760300,7.62676025390625,-278.3062744140625,155.8125,80.75625610351562
1729696536475760400,7.636760498046875,-278.5687561035156,155.68125915527344,80.5875015258789
1729696536485760300,7.64676025390625,-278.5875244140625,155.47500610351562,80.47500610351562
1729696536495760400,7.656760498046875,-278.53125,155.58750915527344,80.4000015258789
1729696536505760300,7.66676025390625,-278.6437683105469,155.32501220703125,80.4375
1729696536515760400,7.676760498046875,-278.79376220703125,155.23126220703125,80.34375
1729696536525760300,7.68676025390625,-278.88751220703125,155.19375610351562,80.4000015258789
1729696536535760400,7.696760498046875,-278.8500061035156,155.40000915527344,80.4375
1729696536545760300,7.70676025390625,-279.0562744140625,155.47500610351562,80.36250305175781
1729696536555760400,7.716760498046875,-278.8500061035156,155.58750915527344,80.4375
1729696536565760300,7.72676025390625,-278.6437683105469,155.60626220703125,80.4937515258789
1729696536575760400,7.736760498046875,-278.6812744140625,155.5500030517578,80.4937515258789
1729696536585760300,7.74676025390625,-278.5500183105469,155.625,80.66250610351562
1729696536595760400,7.756760498046875,-278.4562683105469,155.7375030517578,80.64375305175781
1729696536605760300,7.76676025390625,-278.3625183105469,155.94375610351562,80.5875015258789
1729696536615760400,7.776760498046875,-278.3062744140625,155.9250030517578,80.47500610351562
1729696536625760300,7.78676025390625,-278.2875061035156,155.8312530517578,80.34375
1729696536635760400,7.796760498046875,-278.51251220703125,155.8312530517578,80.41875457763672
1729696536645760300,7.80676025390625,-278.5875244140625,156.07501220703125,80.4000015258789
1729696536655760400,7.816760498046875,-278.60626220703125,156.0187530517578,80.60625457763672
1729696536665760300,7.82676025390625,-278.5875244140625,156,80.53125
1729696536675760400,7.836760498046875,-278.3812561035156,156.1125030517578,80.55000305175781
1729696536685760300,7.84676025390625,-278.1750183105469,155.98126220703125,80.64375305175781
1729696536695760400,7.856760498046875,-278.1750183105469,155.98126220703125,80.64375305175781
1729696536705760300,7.86676025390625,-278.1187744140625,156.0187530517578,80.60625457763672
1729696536715760400,7.876760498046875,-277.9312744140625,155.9250030517578,80.5875015258789
1729696536725760300,7.88676025390625,-278.1187744140625,155.94375610351562,80.4375
1729696536735760400,7.896760498046875,-278.0812683105469,155.85000610351562,80.26875305175781
1729696536745760300,7.90676025390625,-278.04376220703125,155.79376220703125,80.17500305175781
1729696536755760400,7.916760498046875,-278.1750183105469,155.70001220703125,80.0625
1729696536765760300,7.92676025390625,-278.4750061035156,155.85000610351562,79.85625457763672
1729696536775760400,7.936760498046875,-278.5687561035156,155.625,79.85625457763672
1729696536785760300,7.94676025390625,-278.51251220703125,155.60626220703125,79.78125
1729696536795760400,7.956760498046875,-278.4937744140625,155.68125915527344,79.57500457763672
1729696536805760300,7.96676025390625,-278.3062744140625,155.58750915527344,79.66875457763672
1729696536815760400,7.976760498046875,-278.4562683105469,155.6437530517578,79.875
1729696536825760300,7.98676025390625,-278.4937744140625,155.7375030517578,79.875
1729696536835760400,7.996760498046875,-278.51251220703125,155.625,79.76250457763672
1729696536845760300,8.00676025390625,-278.25,155.38125610351562,79.96875
1729696536855760400,8.016760498046875,-278.2687683105469,155.58750915527344,79.9312515258789
1729696536865760300,8.02676025390625,-278.4000244140625,155.71875,79.9312515258789
1729696536875760400,8.036760498046876,-278.4937744140625,155.75625610351562,80.0625
1729696536885760300,8.04676025390625,-278.6437683105469,155.6437530517578,80.1187515258789
1729696536895760400,8.056760498046875,-278.51251220703125,155.6437530517578,80.0625
1729696536905760300,8.06676025390625,-278.3625183105469,155.47500610351562,80.19375610351562
1729696536915760400,8.076760498046875,-278.4750061035156,155.625,80.41875457763672
1729696536925760300,8.08676025390625,-278.7375183105469,155.4562530517578,80.36250305175781
1729696536935760400,8.096760498046875,-278.6625061035156,155.4375,80.56875610351562
1729696536945760300,8.10676025390625,-278.70001220703125,155.41876220703125,80.53125
1729696536955760400,8.116760498046874,-278.60626220703125,155.21250915527344,80.47500610351562
1729696536965760300,8.12676025390625,-278.4750061035156,155.40000915527344,80.64375305175781
1729696536975760400,8.136760498046876,-278.3062744140625,155.51251220703125,80.625
1729696536985760300,8.14676025390625,-278.3625183105469,155.6437530517578,80.45625305175781
1729696536995760400,8.156760498046875,-278.1000061035156,155.53125,80.4937515258789
1729696537005760300,8.16676025390625,-278.04376220703125,155.625,80.5875015258789
1729696537015760400,8.176760498046875,-277.9312744140625,155.71875,80.56875610351562
1729696537025760300,8.18676025390625,-278.0062561035156,155.56875610351562,80.79375457763672
1729696537035760400,8.196760498046874,-278.1000061035156,155.71875,81.01875305175781
1729696537045760300,8.20676025390625,-278.1000061035156,155.58750915527344,80.8687515258789
1729696537055760400,8.216760498046876,-278.15625,155.38125610351562,80.79375457763672
1729696537065760300,8.22676025390625,-278.3625183105469,155.34375,80.90625
1729696537075760400,8.236760498046875,-278.4937744140625,155.34375,80.5875015258789
1729696537085760300,8.24676025390625,-278.60626220703125,155.3625030517578,80.4000015258789
1729696537095760400,8.256760498046875,-278.8125,155.28750610351562,80.66250610351562
1729696537105760300,8.26676025390625,-278.5687561035156,155.3625030517578,80.51250457763672
1729696537115760400,8.276760498046874,-278.53125,155.30625915527344,80.32500457763672
1729696537125760300,8.28676025390625,-278.8125,155.32501220703125,80.28750610351562
1729696537135760400,8.296760498046876,-278.8125,155.49375915527344,80.34375
1729696537145760300,8.30676025390625,-278.6625061035156,155.49375915527344,80.4000015258789
1729696537155760400,8.316760498046875,-278.70001220703125,155.56875610351562,80.88750457763672
1729696537165760300,8.32676025390625,-278.6437683105469,155.58750915527344,80.94375610351562
1729696537175760400,8.336760498046875,-278.6625061035156,155.60626220703125,80.8125
1729696537185760300,8.34676025390625,-278.79376220703125,155.66250610351562,80.73750305175781
1729696537195760400,8.356760498046874,-278.9625244140625,155.7375030517578,80.75625610351562
1729696537205760300,8.36676025390625,-278.8687744140625,155.68125915527344,80.85000610351562
1729696537215760400,8.376760498046876,-279.1125183105469,155.58750915527344,80.88750457763672
1729696537225760300,8.38676025390625,-279.09375,155.6437530517578,80.70000457763672
1729696537235760400,8.396760498046875,-279.0562744140625,155.66250610351562,80.6812515258789
1729696537245760300,8.40676025390625,-278.8125,155.53125,80.73750305175781
1729696537255760400,8.416760498046875,-278.6625061035156,155.47500610351562,80.53125
1729696537265760300,8.42676025390625,-278.6437683105469,155.15625,80.66250610351562
1729696537275760400,8.436760498046874,-278.5875244140625,155.00625610351562,80.8125
1729696537285760300,8.44676025390625,-278.2687683105469,155.0812530517578,80.9625015258789
1729696537295760400,8.456760498046876,-278.2687683105469,155.04376220703125,81.1875
1729696537305760300,8.46676025390625,-278.51251220703125,155.02500915527344,81.50625610351562
1729696537315760400,8.476760498046875,-278.51251220703125,154.85626220703125,81.41250610351562
1729696537325760300,8.48676025390625,-278.70001220703125,155.0625,81.50625610351562
1729696537335760400,8.496760498046875,-278.60626220703125,155.00625610351562,81.50625610351562
1729696537345760300,8.50676025390625,-278.6437683105469,155.28750610351562,81.50625610351562
1729696537355760400,8.516760498046875,-278.5875244140625,155.4562530517578,81.54375457763672
1729696537365760300,8.52676025390625,-278.60626220703125,155.38125610351562,81.31875610351562
1729696537375760400,8.536760498046876,-278.4937744140625,155.58750915527344,81.16875457763672
1729696537385760300,8.54676025390625,-278.23126220703125,155.49375915527344,80.98125457763672
1729696537395760400,8.556760498046875,-278.25,155.625,81
1729696537405760300,8.56676025390625,-278.0812683105469,155.53125,81.07500457763672
1729696537415760400,8.576760498046875,-278.2687683105469,155.53125,81.31875610351562
1729696537425760300,8.58676025390625,-278.41876220703125,155.625,81.375
1729696537435760400,8.596760498046875,-278.41876220703125,155.4375,81.31875610351562
1729696537445760300,8.60676025390625,-278.71875,155.40000915527344,81.48750305175781
1729696537455760400,8.616760498046874,-278.8312683105469,155.28750610351562,81.50625610351562
1729696537465760300,8.62676025390625,-278.88751220703125,155.53125,81.6187515258789
1729696537475760400,8.636760498046876,-278.98126220703125,155.38125610351562,81.48750305175781
1729696537485760300,8.64676025390625,-279.1312561035156,155.5500030517578,81.3375015258789
1729696537495760400,8.656760498046875,-279.1500244140625,155.47500610351562,81.35625457763672
1729696537505760300,8.66676025390625,-279.09375,155.2687530517578,81.39375305175781
1729696537515760400,8.676760498046875,-278.9437561035156,155.3625030517578,81.3375015258789
1729696537525760300,8.68676025390625,-278.7375183105469,155.51251220703125,81.30000305175781
1729696537535760400,8.696760498046874,-278.71875,155.49375915527344,81.375
1729696537545760300,8.70676025390625,-278.71875,155.4375,81.375
1729696537555760400,8.716760498046876,-278.70001220703125,155.56875610351562,81.50625610351562
1729696537565760300,8.72676025390625,-278.7750244140625,155.68125915527344,81.65625
1729696537575760400,8.736760498046875,-278.6625061035156,155.9250030517578,81.60000610351562
1729696537585760300,8.74676025390625,-278.6437683105469,156.03750610351562,81.5625
1729696537595760400,8.756760498046875,-278.8500061035156,156.07501220703125,81.54375457763672
1729696537605760300,8.76676025390625,-279.16876220703125,156.05625915527344,81.67500305175781
1729696537615760400,8.776760498046874,-279.16876220703125,155.96250915527344,81.41250610351562
1729696537625760300,8.78676025390625,-279.1312561035156,155.90625,81.7125015258789
1729696537635760400,8.796760498046876,-278.8312683105469,155.86875915527344,81.8062515258789
1729696537645760300,8.80676025390625,-278.6625061035156,155.60626220703125,81.5625
1729696537655760400,8.816760498046875,-278.6625061035156,155.4562530517578,81.50625610351562
1729696537665760300,8.82676025390625,-278.60626220703125,155.60626220703125,81.45000457763672
1729696537675760400,8.836760498046875,-278.60626220703125,155.5500030517578,81.58125305175781
1729696537685760300,8.84676025390625,-278.4375,155.4375,81.46875
1729696537695760400,8.856760498046874,-278.4937744140625,155.4375,81.5250015258789
1729696537705760300,8.86676025390625,-278.7750244140625,155.51251220703125,81.3375015258789
1729696537715760400,8.876760498046876,-279.0187683105469,155.60626220703125,81.20625305175781
1729696537725760300,8.88676025390625,-279.2062683105469,155.66250610351562,81.3375015258789
1729696537735760400,8.896760498046875,-279.3187561035156,155.5500030517578,81.45000457763672
1729696537745760300,8.90676025390625,-279.2437744140625,155.6437530517578,81.69375610351562
1729696537755760400,8.916760498046875,-279.26251220703125,155.7375030517578,81.5250015258789
1729696537765760300,8.92676025390625,-279.45001220703125,155.90625,81.41250610351562
1729696537775760400,8.936760498046874,-279.26251220703125,156.0187530517578,81.28125
1729696537785760300,8.94676025390625,-279.1312561035156,156.15000915527344,81.1500015258789
1729696537795760400,8.956760498046876,-279.2062683105469,155.94375610351562,80.98125457763672
1729696537805760300,8.96676025390625,-278.9437561035156,155.86875915527344,81.01875305175781
1729696537815760400,8.976760498046875,-278.8312683105469,155.98126220703125,80.73750305175781
1729696537825760300,8.98676025390625,-279.0562744140625,155.77500915527344,80.4375
1729696537835760400,8.996760498046875,-278.8500061035156,155.79376220703125,80.36250305175781
1729696537845760300,9.00676025390625,-278.71875,155.625,80.5875015258789
1729696537855760400,9.016760498046875,-278.6437683105469,155.41876220703125,80.79375457763672
1729696537865760300,9.02676025390625,-278.41876220703125,155.30625915527344,80.73750305175781
1729696537875760400,9.036760498046876,-278.3625183105469,155.3625030517578,80.94375610351562
1729696537885760300,9.04676025390625,-278.625,155.58750915527344,81.01875305175781
1729696537895760400,9.056760498046875,-278.7562561035156,155.70001220703125,81.2437515258789
1729696537905760300,9.06676025390625,-278.60626220703125,155.77500915527344,81.46875
1729696537915760400,9.076760498046875,-278.60626220703125,155.6437530517578,81.5625
1729696537925760300,9.08676025390625,-278.60626220703125,155.5500030517578,81.46875
1729696537935760400,9.096760498046875,-278.6625061035156,155.6437530517578,81.28125
1729696537945760300,9.10676025390625,-278.90625,155.5500030517578,81.1875
1729696537955760400,9.116760498046874,-278.9625244140625,155.625,81.13125610351562
1729696537965760300,9.12676025390625,-278.70001220703125,155.53125,80.79375457763672
1729696537975760400,9.136760498046876,-278.5500183105469,155.34375,80.5875015258789
1729696537985760300,9.14676025390625,-278.34375,155.19375610351562,80.56875610351562
1729696537995760400,9.156760498046875,-278.2687683105469,155.28750610351562,80.64375305175781
1729696538005760300,9.16676025390625,-278.2125244140625,155.47500610351562,80.70000457763672
1729696538015760400,9.176760498046875,-278.23126220703125,155.56875610351562,80.88750457763672
1729696538025760300,9.18676025390625,-278.0812683105469,155.71875,81.1500015258789
1729696538035760400,9.196760498046874,-277.9875183105469,155.53125,81
1729696538045760300,9.20676025390625,-278.13751220703125,155.51251220703125,81.26250457763672
1729696538055760400,9.216760498046876,-277.85626220703125,155.47500610351562,81.45000457763672
1729696538065760300,9.22676025390625,-277.96875,155.40000915527344,81.5250015258789
1729696538075760400,9.236760498046875,-278.0625,155.19375610351562,81.60000610351562
1729696538085760300,9.24676025390625,-278.0250244140625,155.11875915527344,81.3375015258789
1729696538095760400,9.256760498046875,-278.0812683105469,155.11875915527344,81.2437515258789
1729696538105760300,9.26676025390625,-278.13751220703125,155.00625610351562,81.07500457763672
1729696538115760400,9.276760498046874,-278.1937561035156,155.10000610351562,81.07500457763672
1729696538125760300,9.28676025390625,-278.0625,155.10000610351562,81.16875457763672
1729696538135760400,9.296760498046876,-278.5687561035156,155.02500915527344,80.92500305175781
1729696538145760300,9.30676025390625,-278.7750244140625,155.10000610351562,80.85000610351562
1729696538155760400,9.316760498046875,-278.90625,155.19375610351562,80.625
1729696538165760300,9.32676025390625,-279.0187683105469,155.0812530517578,80.88750457763672
1729696538175760400,9.336760498046875,-279.0375061035156,155.00625610351562,80.92500305175781
1729696538185760300,9.34676025390625,-279.0187683105469,155.30625915527344,80.79375457763672
1729696538195760400,9.356760498046874,-279,155.23126220703125,80.94375610351562
1729696538205760300,9.36676025390625,-279.28125,155.28750610351562,80.94375610351562
1729696538215760400,9.376760498046876,-279,155.40000915527344,81.1500015258789
1729696538225760300,9.38676025390625,-278.79376220703125,155.41876220703125,81.22500610351562
1729696538235760400,9.396760498046875,-278.9437561035156,155.51251220703125,81.375
1729696538245760300,9.40676025390625,-279.0562744140625,155.70001220703125,81.35625457763672
1729696538255760400,9.416760498046875,-278.9437561035156,155.8312530517578,81.31875610351562
1729696538265760300,9.42676025390625,-279.1312561035156,155.5500030517578,81.39375305175781
1729696538275760400,9.436760498046874,-279.16876220703125,155.75625610351562,81.39375305175781
1729696538285760300,9.44676025390625,-278.8687744140625,155.75625610351562,81.39375305175781
1729696538295760400,9.456760498046876,-278.90625,155.9250030517578,81.375
1729696538305760300,9.46676025390625,-278.90625,155.98126220703125,81.28125
1729696538315760400,9.476760498046875,-278.7562561035156,155.88751220703125,81.28125
1729696538325760300,9.48676025390625,-278.51251220703125,156.0187530517578,81.31875610351562
1729696538335760400,9.496760498046875,-278.41876220703125,155.98126220703125,81.54375457763672
1729696538345760300,9.50676025390625,-278.1000061035156,156.03750610351562,81.69375610351562
1729696538355760400,9.516760498046875,-278.13751220703125,155.9250030517578,81.75
1729696538365760300,9.52676025390625,-278.34375,155.90625,81.58125305175781
1729696538375760400,9.536760498046876,-278.3625183105469,155.79376220703125,81.63750457763672
1729696538385760300,9.54676025390625,-278.4375,155.85000610351562,81.6187515258789
1729696538395760400,9.556760498046875,-278.4375,156.03750610351562,81.69375610351562
1729696538405760300,9.56676025390625,-278.4937744140625,156.0187530517578,81.8062515258789
1729696538415760400,9.576760498046875,-278.5687561035156,155.94375610351562,81.73125457763672
1729696538425760300,9.58676025390625,-278.7562561035156,155.85000610351562,81.65625
1729696538435760400,9.596760498046875,-278.7562561035156,156.05625915527344,81.60000610351562
1729696538445760300,9.60676025390625,-278.5500183105469,156.31875610351562,81.73125457763672
1729696538455760400,9.616760498046874,-278.4375,156.33750915527344,81.6187515258789
1729696538465760300,9.62676025390625,-278.41876220703125,156.31875610351562,81.58125305175781
1729696538475760400,9.636760498046876,-278.4000244140625,156.03750610351562,81.58125305175781
1729696538485760300,9.64676025390625,-278.41876220703125,155.77500915527344,81.2437515258789
1729696538495760400,9.656760498046875,-278.4375,155.88751220703125,81.26250457763672
1729696538505760300,9.66676025390625,-278.25,156.05625915527344,81.39375305175781
1729696538515760400,9.676760498046875,-278.4000244140625,155.85000610351562,81.48750305175781
1729696538525760300,9.68676025390625,-278.625,155.40000915527344,81.45000457763672
1729696538535760400,9.696760498046874,-278.6625061035156,155.34375,81.63750457763672
1729696538545760300,9.70676025390625,-278.6437683105469,155.2687530517578,81.8062515258789
1729696538555760400,9.716760498046876,-278.6625061035156,155.53125,81.76875305175781
1729696538565760300,9.72676025390625,-278.4937744140625,155.70001220703125,81.97500610351562
1729696538575760400,9.736760498046875,-278.41876220703125,155.41876220703125,81.84375
1729696538585760300,9.74676025390625,-278.4750061035156,155.10000610351562,81.65625
1729696538595760400,9.756760498046875,-278.1000061035156,155.1750030517578,81.6187515258789
1729696538605760300,9.76676025390625,-277.9312744140625,155.32501220703125,81.60000610351562
1729696538615760400,9.776760498046874,-277.9875183105469,155.53125,81.6187515258789
1729696538625760300,9.78676025390625,-278.04376220703125,155.49375915527344,81.5625
1729696538635760400,9.796760498046876,-278.1000061035156,155.34375,81.5250015258789
1729696538645760300,9.80676025390625,-278.23126220703125,155.4375,81.39375305175781
1729696538655760400,9.816760498046875,-278.23126220703125,155.68125915527344,81.26250457763672
1729696538665760300,9.82676025390625,-278.23126220703125,155.90625,81.28125
1729696538675760400,9.836760498046875,-278.3812561035156,155.8312530517578,81.22500610351562
1729696538685760300,9.84676025390625,-278.41876220703125,155.85000610351562,81.1500015258789
1729696538695760400,9.856760498046874,-278.51251220703125,155.625,80.92500305175781
1729696538705760300,9.86676025390625,-278.70001220703125,155.70001220703125,80.7750015258789
1729696538715760400,9.876760498046876,-278.71875,155.7375030517578,80.79375457763672
1729696538725760300,9.88676025390625,-278.8312683105469,155.625,80.94375610351562
1729696538735760400,9.896760498046875,-279.0562744140625,155.71875,81.1875
1729696538745760300,9.90676025390625,-279.3375244140625,155.68125915527344,81.2437515258789
1729696538755760400,9.916760498046875,-279.45001220703125,155.77500915527344,81.07500457763672
1729696538765760300,9.92676025390625,-279.6937561035156,155.94375610351562,81.16875457763672
1729696538775760400,9.936760498046874,-279.5812683105469,156.13125610351562,81.20625305175781
1729696538785760300,9.94676025390625,-279.63751220703125,155.98126220703125,81.39375305175781
1729696538795760400,9.956760498046876,-279.4875183105469,155.98126220703125,81.48750305175781
1729696538805760300,9.96676025390625,-279.3000183105469,155.75625610351562,81.41250610351562
1729696538815760400,9.976760498046875,-279.2437744140625,155.77500915527344,81.30000305175781
1729696538825760300,9.98676025390625,-279.1312561035156,155.96250915527344,81.3375015258789
1729696538835760400,9.996760498046875,-279.1500244140625,155.79376220703125,81.54375457763672
1729696538845760300,10.00676025390625,-279.0562744140625,155.60626220703125,81.65625
1729696538855760400,10.016760498046875,-279.1125183105469,155.53125,81.63750457763672
1729696538865760300,10.02676025390625,-279.0375061035156,155.5500030517578,81.5250015258789
1729696538875760400,10.036760498046876,-279.0187683105469,155.41876220703125,81.48750305175781
1729696538885760300,10.04676025390625,-279.1125183105469,155.56875610351562,81.65625
1729696538895760400,10.056760498046875,-278.9625244140625,155.25,81.84375
1729696538905760300,10.06676025390625,-278.9625244140625,154.91250610351562,81.86250305175781
1729696538915760400,10.076760498046875,-278.6625061035156,155.04376220703125,81.82500457763672
1729696538925760300,10.08676025390625,-278.3812561035156,155.13751220703125,81.69375610351562
1729696538935760400,10.096760498046875,-278.3062744140625,155.10000610351562,81.75
1729696538945760300,10.10676025390625,-278.25,155.19375610351562,81.75
1729696538955760400,10.116760498046874,-278.1750183105469,155.23126220703125,81.58125305175781
1729696538965760300,10.12676025390625,-278.1937561035156,155.41876220703125,81.375
1729696538975760400,10.136760498046876,-278.25,155.5500030517578,81.09375
1729696538985760300,10.14676025390625,-278.1937561035156,155.79376220703125,80.8687515258789
1729696538995760400,10.156760498046875,-278.2875061035156,155.70001220703125,80.90625
1729696539005760300,10.16676025390625,-278.4750061035156,155.53125,80.8687515258789
1729696539015760400,10.176760498046875,-278.6437683105469,155.47500610351562,81
1729696539025760300,10.18676025390625,-278.51251220703125,155.38125610351562,80.8125
1729696539035760400,10.196760498046874,-278.5500183105469,155.41876220703125,80.90625
1729696539045760300,10.20676025390625,-278.7375183105469,155.23126220703125,80.94375610351562
1729696539055760400,10.216760498046876,-278.8500061035156,155.3625030517578,80.94375610351562
1729696539065760300,10.22676025390625,-278.9437561035156,155.19375610351562,80.92500305175781
1729696539075760400,10.236760498046875,-279,155.49375915527344,80.92500305175781
1729696539085760300,10.24676025390625,-278.9250183105469,155.7375030517578,80.56875610351562
1729696539095760400,10.256760498046875,-278.5875244140625,155.8125,80.36250305175781
1729696539105760300,10.26676025390625,-278.4375,156,80.47500610351562
1729696539115760400,10.276760498046874,-278.5500183105469,155.85000610351562,80.4000015258789
1729696539125760300,10.28676025390625,-278.3812561035156,155.86875915527344,80.41875457763672
1729696539135760400,10.296760498046876,-278.25,155.8312530517578,80.4000015258789
1729696539145760300,10.30676025390625,-278.2125244140625,156,80.60625457763672
1729696539155760400,10.316760498046875,-278.2687683105469,155.75625610351562,80.32500457763672
1729696539165760300,10.32676025390625,-278.34375,155.56875610351562,80.53125
1729696539175760400,10.336760498046875,-278.625,155.70001220703125,80.53125
1729696539185760300,10.34676025390625,-278.6625061035156,155.58750915527344,80.60625457763672
1729696539195760400,10.356760498046874,-278.625,155.8125,80.625
1729696539205760300,10.36676025390625,-278.4750061035156,155.8312530517578,80.55000305175781
1729696539215760400,10.376760498046876,-278.53125,155.71875,80.66250610351562
1729696539225760300,10.38676025390625,-278.51251220703125,155.70001220703125,80.5875015258789
1729696539235760400,10.396760498046875,-278.5687561035156,155.77500915527344,80.75625610351562
1729696539245760300,10.40676025390625,-278.7375183105469,155.8125,80.75625610351562
1729696539255760400,10.416760498046875,-278.6625061035156,155.88751220703125,80.73750305175781
1729696539265760300,10.42676025390625,-278.70001220703125,156.1125030517578,80.7750015258789
1729696539275760400,10.436760498046874,-278.8687744140625,156.05625915527344,80.71875
1729696539285760300,10.44676025390625,-279.2062683105469,156.0187530517578,80.70000457763672
1729696539295760400,10.456760498046876,-279.07501220703125,156.24375915527344,80.56875610351562
1729696539305760300,10.46676025390625,-278.90625,156.28125,80.56875610351562
1729696539315760400,10.476760498046875,-278.88751220703125,156.35626220703125,80.4937515258789
1729696539325760300,10.48676025390625,-278.70001220703125,156.41250610351562,80.53125
1729696539335760400,10.496760498046875,-278.7562561035156,156.31875610351562,80.4375
1729696539345760300,10.50676025390625,-278.8687744140625,155.96250915527344,80.3062515258789
1729696539355760400,10.516760498046875,-278.71875,155.90625,80.25
1729696539365760300,10.52676025390625,-278.34375,156.09375,80.28750610351562
1729696539375760400,10.536760498046876,-278.25,156.05625915527344,80.32500457763672
1729696539385760300,10.54676025390625,-278.51251220703125,156.0187530517578,80.25
1729696539395760400,10.556760498046875,-278.3062744140625,155.94375610351562,80.34375
1729696539405760300,10.56676025390625,-278.4562683105469,155.96250915527344,80.3062515258789
1729696539415760400,10.576760498046875,-278.4937744140625,155.98126220703125,80.45625305175781
1729696539425760300,10.58676025390625,-278.4750061035156,156.15000915527344,80.38125610351562
1729696539435760400,10.596760498046875,-278.4375,156.28125,80.5875015258789
1729696539445760300,10.60676025390625,-278.5500183105469,156.09375,80.5875015258789
1729696539455760400,10.616760498046874,-278.6437683105469,155.88751220703125,80.64375305175781
1729696539465760300,10.62676025390625,-278.3062744140625,155.71875,80.8125
1729696539475760400,10.636760498046876,-278.2125244140625,155.94375610351562,80.85000610351562
1729696539485760300,10.64676025390625,-278.1750183105469,155.98126220703125,81.01875305175781
1729696539495760400,10.656760498046875,-278.32501220703125,155.86875915527344,80.98125457763672
1729696539505760300,10.66676025390625,-278.4562683105469,155.94375610351562,80.98125457763672
1729696539515760400,10.676760498046875,-278.4750061035156,155.98126220703125,80.8687515258789
1729696539525760300,10.68676025390625,-278.4562683105469,155.8312530517578,80.85000610351562
1729696539535760400,10.696760498046874,-278.4562683105469,155.96250915527344,80.88750457763672
1729696539545760300,10.70676025390625,-278.90625,156.05625915527344,80.85000610351562
1729696539555760400,10.716760498046876,-279.1875,155.94375610351562,80.8125
1729696539565760300,10.72676025390625,-279.1500244140625,155.88751220703125,80.85000610351562
1729696539575760400,10.736760498046875,-278.8687744140625,155.85000610351562,80.70000457763672
1729696539585760300,10.74676025390625,-278.51251220703125,155.7375030517578,80.7750015258789
1729696539595760400,10.756760498046875,-278.5687561035156,155.58750915527344,80.56875610351562
1729696539605760300,10.76676025390625,-278.5500183105469,155.66250610351562,80.5875015258789
1729696539615760400,10.776760498046874,-278.60626220703125,155.625,80.73750305175781
1729696539625760300,10.78676025390625,-278.32501220703125,155.68125915527344,80.88750457763672
1729696539635760400,10.796760498046876,-278.3812561035156,155.71875,80.92500305175781
1729696539645760300,10.80676025390625,-278.32501220703125,155.8312530517578,80.85000610351562
1729696539655760400,10.816760498046875,-278.3812561035156,155.86875915527344,80.92500305175781
1729696539665760300,10.82676025390625,-278.6812744140625,156.09375,81.20625305175781
1729696539675760400,10.836760498046875,-278.7375183105469,156.15000915527344,81.60000610351562
1729696539685760300,10.84676025390625,-279.0187683105469,156.33750915527344,81.5625
1729696539695760400,10.856760498046874,-279.0562744140625,156.375,81.41250610351562
1729696539705760300,10.86676025390625,-278.9437561035156,156.33750915527344,81.20625305175781
1729696539715760400,10.876760498046876,-279.0187683105469,156.1125030517578,81.20625305175781
1729696539725760300,10.88676025390625,-279.0187683105469,155.98126220703125,81.3375015258789
1729696539735760400,10.896760498046875,-279.1312561035156,156.05625915527344,81.22500610351562
1729696539745760300,10.90676025390625,-279.1500244140625,155.90625,81
1729696539755760400,10.916760498046875,-279.1875,155.88751220703125,80.79375457763672
1729696539765760300,10.92676025390625,-279,155.85000610351562,80.83125305175781
1729696539775760400,10.936760498046874,-278.8500061035156,155.7375030517578,80.70000457763672
1729696539785760300,10.94676025390625,-278.79376220703125,155.90625,80.625
1729696539795760400,10.956760498046876,-278.6437683105469,156.07501220703125,80.56875610351562
1729696539805760300,10.96676025390625,-278.5687561035156,156.22500610351562,80.51250457763672
1729696539815760400,10.976760498046875,-278.4750061035156,156.2062530517578,80.7750015258789
1729696539825760300,10.98676025390625,-278.5687561035156,156.09375,80.75625610351562
1729696539835760400,10.996760498046875,-278.2687683105469,156.22500610351562,80.88750457763672
1729696539845760300,11.00676025390625,-278.1750183105469,156.3000030517578,80.79375457763672
1729696539855760400,11.016760498046875,-278.25,156.4875030517578,80.98125457763672
1729696539865760300,11.02676025390625,-278.4750061035156,156.41250610351562,81.0562515258789
1729696539875760400,11.036760498046876,-278.41876220703125,156.16876220703125,81.13125610351562
1729696539885760300,11.04676025390625,-278.4937744140625,156.0187530517578,81.1875
1729696539895760400,11.056760498046875,-278.4562683105469,156.05625915527344,80.90625
1729696539905760300,11.06676025390625,-278.32501220703125,156.03750610351562,80.83125305175781
1729696539915760400,11.076760498046875,-278.4937744140625,156.1125030517578,80.625
1729696539925760300,11.08676025390625,-278.60626220703125,155.88751220703125,80.70000457763672
1729696539935760400,11.096760498046875,-278.8312683105469,155.71875,80.5875015258789
1729696539945760300,11.10676025390625,-278.625,155.56875610351562,80.55000305175781
1729696539955760400,11.116760498046874,-278.6437683105469,155.49375915527344,80.19375610351562
1729696539965760300,11.12676025390625,-278.6812744140625,155.34375,79.78125
1729696539975760400,11.136760498046876,-278.5687561035156,155.34375,79.85625457763672
1729696539985760300,11.14676025390625,-278.53125,155.38125610351562,79.76250457763672
1729696539995760400,11.156760498046875,-278.4562683105469,155.25,79.91250610351562
1729696540005760300,11.16676025390625,-278.5875244140625,155.47500610351562,79.96875
1729696540015760400,11.176760498046875,-278.4562683105469,155.40000915527344,79.98750305175781
1729696540025760300,11.18676025390625,-278.7375183105469,155.49375915527344,79.76250457763672
1729696540035760400,11.196760498046874,-278.6437683105469,155.70001220703125,79.9312515258789
1729696540045760300,11.20676025390625,-278.71875,155.86875915527344,80.25
1729696540055760400,11.216760498046876,-278.8125,155.68125915527344,80.47500610351562
1729696540065760300,11.22676025390625,-278.6812744140625,155.7375030517578,80.75625610351562
1729696540075760400,11.236760498046875,-278.8125,155.6437530517578,80.66250610351562
1729696540085760300,11.24676025390625,-278.6812744140625,155.5500030517578,80.73750305175781
1729696540095760400,11.256760498046875,-278.4937744140625,155.7375030517578,80.83125305175781
1729696540105760300,11.26676025390625,-278.4562683105469,155.7375030517578,81.2437515258789
1729696540115760400,11.276760498046874,-278.4562683105469,155.6437530517578,81.54375457763672
1729696540125760300,11.28676025390625,-278.1937561035156,155.60626220703125,81.375
1729696540135760400,11.296760498046876,-278.2125244140625,155.70001220703125,81.46875
1729696540145760300,11.30676025390625,-278.4000244140625,155.70001220703125,81.45000457763672
1729696540155760400,11.316760498046875,-278.3812561035156,155.8125,81.41250610351562
1729696540165760300,11.32676025390625,-278.4750061035156,156.0187530517578,81.26250457763672
1729696540175760400,11.336760498046875,-278.53125,155.9250030517578,81.1500015258789
1729696540185760300,11.34676025390625,-278.5687561035156,155.8312530517578,81.0562515258789
1729696540195760400,11.356760498046874,-278.4937744140625,156.07501220703125,80.98125457763672
1729696540205760300,11.36676025390625,-278.7750244140625,155.98126220703125,81.11250305175781
1729696540215760400,11.376760498046876,-278.8500061035156,156.0187530517578,80.83125305175781
1729696540225760300,11.38676025390625,-278.8125,156.13125610351562,80.7750015258789
1729696540235760400,11.396760498046875,-278.7375183105469,156.07501220703125,80.94375610351562
1729696540245760300,11.40676025390625,-278.8125,155.77500915527344,81.16875457763672
1729696540255760400,11.416760498046875,-278.9625244140625,155.68125915527344,81.22500610351562
1729696540265760300,11.42676025390625,-279.0187683105469,155.71875,81.31875610351562
1729696540275760400,11.436760498046874,-279.1500244140625,155.6437530517578,81.22500610351562
1729696540285760300,11.44676025390625,-279.2437744140625,155.60626220703125,81.09375
1729696540295760400,11.456760498046876,-279.1875,155.68125915527344,81.3375015258789
1729696540305760300,11.46676025390625,-279.16876220703125,155.60626220703125,81.22500610351562
1729696540315760400,11.476760498046875,-279.1500244140625,155.70001220703125,81.01875305175781
1729696540325760300,11.48676025390625,-279.0375061035156,155.68125915527344,80.73750305175781
1729696540335760400,11.496760498046875,-278.79376220703125,155.8125,80.56875610351562
1729696540345760300,11.50676025390625,-278.70001220703125,155.58750915527344,80.66250610351562
1729696540355760400,11.516760498046875,-278.7750244140625,155.40000915527344,80.64375305175781
1729696540365760300,11.52676025390625,-278.4937744140625,155.68125915527344,80.85000610351562
1729696540375760400,11.536760498046876,-278.53125,155.4375,80.7750015258789
1729696540385760300,11.54676025390625,-278.6437683105469,155.30625915527344,80.75625610351562
1729696540395760400,11.556760498046875,-278.7562561035156,155.2687530517578,80.79375457763672
1729696540405760300,11.56676025390625,-278.7562561035156,155.3625030517578,80.625
1729696540415760400,11.576760498046875,-278.9625244140625,155.41876220703125,80.60625457763672
1729696540425760300,11.58676025390625,-278.7750244140625,155.60626220703125,80.36250305175781
1729696540435760400,11.596760498046875,-278.625,155.7375030517578,80.4937515258789
1729696540445760300,11.60676025390625,-278.8312683105469,155.70001220703125,80.41875457763672
1729696540455760400,11.616760498046874,-278.8687744140625,155.71875,80.4000015258789
1729696540465760300,11.62676025390625,-278.70001220703125,155.70001220703125,80.45625305175781
1729696540475760400,11.636760498046876,-278.71875,155.625,80.5875015258789
1729696540485760300,11.64676025390625,-278.8687744140625,155.6437530517578,80.83125305175781
1729696540495760400,11.656760498046875,-278.8687744140625,155.5500030517578,81.03750610351562
1729696540505760300,11.66676025390625,-279.07501220703125,155.5500030517578,81.1500015258789
1729696540515760400,11.676760498046875,-279.2250061035156,155.5500030517578,81.0562515258789
1729696540525760300,11.68676025390625,-279.0562744140625,155.32501220703125,81.1500015258789
1729696540535760400,11.696760498046874,-278.8687744140625,155.49375915527344,81.13125610351562
1729696540545760300,11.70676025390625,-279.16876220703125,155.68125915527344,81.07500457763672
1729696540555760400,11.716760498046876,-279,155.75625610351562,81
1729696540565760300,11.72676025390625,-278.6812744140625,155.66250610351562,80.88750457763672
1729696540575760400,11.736760498046875,-278.7750244140625,155.41876220703125,80.83125305175781
1729696540585760300,11.74676025390625,-278.6437683105469,155.4375,80.6812515258789
1729696540595760400,11.756760498046875,-278.6625061035156,155.51251220703125,80.53125
1729696540605760300,11.76676025390625,-278.71875,155.70001220703125,80.4375
1729696540615760400,11.776760498046874,-278.79376220703125,155.75625610351562,80.3062515258789
1729696540625760300,11.78676025390625,-278.60626220703125,155.60626220703125,80.4000015258789
1729696540635760400,11.796760498046876,-278.8125,155.53125,80.28750610351562
1729696540645760300,11.80676025390625,-279.2437744140625,155.79376220703125,80.4000015258789
1729696540655760400,11.816760498046875,-279.2250061035156,156.09375,80.25
1729696540665760300,11.82676025390625,-279.3187561035156,156.15000915527344,80.17500305175781
1729696540675760400,11.836760498046875,-279.1875,155.90625,80.08125305175781
1729696540685760300,11.84676025390625,-279.09375,156,79.80000305175781
1729696540695760400,11.856760498046874,-279.26251220703125,155.94375610351562,79.78125
1729696540705760300,11.86676025390625,-279.3187561035156,155.8125,79.59375
1729696540715760400,11.876760498046876,-279.2250061035156,155.77500915527344,79.72500610351562
1729696540725760300,11.88676025390625,-278.9250183105469,155.60626220703125,79.4625015258789
1729696540735760400,11.896760498046875,-278.8500061035156,155.56875610351562,79.66875457763672
1729696540745760300,11.90676025390625,-278.7375183105469,155.625,79.72500610351562
1729696540755760400,11.916760498046875,-278.8687744140625,155.88751220703125,79.98750305175781
1729696540765760300,11.92676025390625,-278.9625244140625,155.8312530517578,80.2125015258789
1729696540775760400,11.936760498046874,-278.70001220703125,155.6437530517578,80.53125
1729696540785760300,11.94676025390625,-278.41876220703125,155.85000610351562,80.8687515258789
1729696540795760400,11.956760498046876,-278.4750061035156,155.85000610351562,80.8687515258789
1729696540805760300,11.96676025390625,-278.60626220703125,155.88751220703125,81.375
1729696540815760400,11.976760498046875,-278.6812744140625,155.68125915527344,81.3375015258789
1729696540825760300,11.98676025390625,-278.71875,155.86875915527344,81.5250015258789
1729696540835760400,11.996760498046875,-278.51251220703125,155.75625610351562,81.50625610351562
1729696540845760300,12.00676025390625,-278.71875,155.6437530517578,81.7125015258789
1729696540855760400,12.016760498046875,-278.9250183105469,155.75625610351562,81.69375610351562
1729696540865760300,12.02676025390625,-279,155.7375030517578,81.67500305175781
1729696540875760400,12.036760498046876,-279.07501220703125,155.8125,81.69375610351562
1729696540885760300,12.04676025390625,-278.9437561035156,155.7375030517578,81.5625
1729696540895760400,12.056760498046875,-278.90625,155.90625,81.50625610351562
1729696540905760300,12.06676025390625,-278.88751220703125,155.58750915527344,81.31875610351562
1729696540915760400,12.076760498046875,-279.2062683105469,155.6437530517578,81.13125610351562
1729696540925760300,12.08676025390625,-278.98126220703125,155.68125915527344,80.9625015258789
1729696540935760400,12.096760498046875,-278.79376220703125,155.58750915527344,81
1729696540945760300,12.10676025390625,-278.88751220703125,155.77500915527344,80.8687515258789
1729696540955760400,12.116760498046874,-278.70001220703125,155.79376220703125,80.71875
1729696540965760300,12.12676025390625,-278.9250183105469,155.94375610351562,80.56875610351562
1729696540975760400,12.136760498046876,-279.1125183105469,155.79376220703125,80.56875610351562
1729696540985760300,12.14676025390625,-279.16876220703125,155.94375610351562,80.45625305175781
1729696540995760400,12.156760498046875,-278.9625244140625,155.96250915527344,80.4375
1729696541005760300,12.16676025390625,-279.0187683105469,155.98126220703125,80.5875015258789
1729696541015760400,12.176760498046875,-279.1125183105469,156.16876220703125,80.25
1729696541025760300,12.18676025390625,-279.2250061035156,156,80.3062515258789
1729696541035760400,12.196760498046874,-279.1500244140625,156.0187530517578,80.55000305175781
1729696541045760300,12.20676025390625,-278.79376220703125,155.88751220703125,80.55000305175781
1729696541055760400,12.216760498046876,-278.4375,156.15000915527344,80.64375305175781
1729696541065760300,12.22676025390625,-278.4937744140625,156.07501220703125,81.01875305175781
1729696541075760400,12.236760498046875,-278.7375183105469,155.96250915527344,81.41250610351562
1729696541085760300,12.24676025390625,-278.7375183105469,155.7375030517578,81.28125
1729696541095760400,12.256760498046875,-278.7562561035156,155.71875,81.48750305175781
1729696541105760300,12.26676025390625,-278.71875,155.625,81.39375305175781
1729696541115760400,12.276760498046874,-278.88751220703125,155.70001220703125,81.3375015258789
1729696541125760300,12.28676025390625,-278.88751220703125,155.75625610351562,81.375
1729696541135760400,12.296760498046876,-279.16876220703125,155.56875610351562,81.39375305175781
1729696541145760300,12.30676025390625,-279.1125183105469,155.51251220703125,81.30000305175781
1729696541155760400,12.316760498046875,-278.70001220703125,155.5500030517578,81
1729696541165760300,12.32676025390625,-278.6812744140625,155.77500915527344,80.94375610351562
1729696541175760400,12.336760498046875,-278.70001220703125,156.0187530517578,80.79375457763672
1729696541185760300,12.34676025390625,-278.625,156.0187530517578,80.6812515258789
1729696541195760400,12.356760498046874,-278.5500183105469,155.8312530517578,80.64375305175781
1729696541205760300,12.36676025390625,-278.5500183105469,155.8312530517578,80.70000457763672
1729696541215760400,12.376760498046876,-278.60626220703125,155.94375610351562,80.625
1729696541225760300,12.38676025390625,-278.6812744140625,156.0187530517578,80.55000305175781
1729696541235760400,12.396760498046875,-278.6437683105469,156.07501220703125,80.64375305175781
1729696541245760300,12.40676025390625,-278.60626220703125,156.1125030517578,80.70000457763672
1729696541255760400,12.416760498046875,-278.625,155.88751220703125,80.6812515258789
1729696541265760300,12.42676025390625,-278.6437683105469,156,80.98125457763672
1729696541275760400,12.436760498046874,-278.71875,156.13125610351562,80.8687515258789
1729696541285760300,12.44676025390625,-278.8312683105469,156.15000915527344,80.85000610351562
1729696541295760400,12.456760498046876,-278.41876220703125,156.26251220703125,80.8687515258789
1729696541305760300,12.46676025390625,-278.0812683105469,156.35626220703125,80.92500305175781
1729696541315760400,12.476760498046875,-278.0625,156.3937530517578,80.90625
1729696541325760300,12.48676025390625,-277.96875,156.35626220703125,81.03750610351562
1729696541335760400,12.496760498046875,-277.8375244140625,156.46875,81.07500457763672
1729696541345760300,12.50676025390625,-277.7062683105469,156.54376220703125,80.9625015258789
1729696541355760400,12.516760498046875,-277.6500244140625,156.45001220703125,81.11250305175781
1729696541365760300,12.52676025390625,-277.57501220703125,156.3000030517578,81.1500015258789
1729696541375760400,12.536760498046876,-277.7437744140625,156.16876220703125,81.1875
1729696541385760300,12.54676025390625,-277.8375244140625,156.16876220703125,81.09375
1729696541395760400,12.556760498046875,-278.0062561035156,155.86875915527344,81.11250305175781
1729696541405760300,12.56676025390625,-278.1937561035156,155.85000610351562,81.07500457763672
1729696541415760400,12.576760498046875,-278.2687683105469,155.625,81.16875457763672
1729696541425760300,12.58676025390625,-278.4562683105469,155.49375915527344,81.30000305175781
1729696541435760400,12.596760498046875,-278.3812561035156,155.49375915527344,81.2437515258789
1729696541445760300,12.60676025390625,-278.3625183105469,155.75625610351562,81
1729696541455760400,12.616760498046874,-278.4000244140625,155.75625610351562,80.8125
1729696541465760300,12.62676025390625,-278.51251220703125,155.8125,80.8687515258789
1729696541475760400,12.636760498046876,-278.6625061035156,155.85000610351562,80.73750305175781
1729696541485760300,12.64676025390625,-278.4000244140625,155.90625,80.71875
1729696541495760400,12.656760498046875,-278.4000244140625,155.8125,80.75625610351562
1729696541505760300,12.66676025390625,-278.4000244140625,155.8125,80.53125
1729696541515760400,12.676760498046875,-278.4562683105469,155.85000610351562,80.45625305175781
1729696541525760300,12.68676025390625,-278.70001220703125,155.66250610351562,80.625
1729696541535760400,12.696760498046874,-278.6437683105469,155.6437530517578,80.7750015258789
1729696541545760300,12.70676025390625,-278.6625061035156,155.41876220703125,80.75625610351562
1729696541555760400,12.716760498046876,-278.4937744140625,155.625,80.98125457763672
1729696541565760300,12.72676025390625,-278.90625,155.56875610351562,80.90625
1729696541575760400,12.736760498046875,-278.98126220703125,155.66250610351562,80.73750305175781
1729696541585760300,12.74676025390625,-278.88751220703125,155.51251220703125,80.88750457763672
1729696541595760400,12.756760498046875,-278.88751220703125,155.58750915527344,80.8125
1729696541605760300,12.76676025390625,-278.8500061035156,155.68125915527344,80.5875015258789
1729696541615760400,12.776760498046874,-278.7562561035156,155.77500915527344,80.6812515258789
1729696541625760300,12.78676025390625,-278.6437683105469,155.77500915527344,80.7750015258789
1729696541635760400,12.796760498046876,-278.7375183105469,155.47500610351562,80.79375457763672
1729696541645760300,12.80676025390625,-278.34375,155.4375,80.7750015258789
1729696541655760400,12.816760498046875,-278.4750061035156,155.41876220703125,80.83125305175781
1729696541665760300,12.82676025390625,-278.5687561035156,155.60626220703125,80.73750305175781
1729696541675760400,12.836760498046875,-278.71875,155.56875610351562,81.0562515258789
1729696541685760300,12.84676025390625,-278.79376220703125,155.56875610351562,81.45000457763672
1729696541695760400,12.856760498046874,-278.8500061035156,155.49375915527344,81.31875610351562
1729696541705760300,12.86676025390625,-279.07501220703125,155.58750915527344,81.28125
1729696541715760400,12.876760498046876,-278.7750244140625,155.85000610351562,81.0562515258789
1729696541725760300,12.88676025390625,-278.7562561035156,155.625,80.98125457763672
1729696541735760400,12.896760498046875,-278.6625061035156,155.53125,80.98125457763672
1729696541745760300,12.90676025390625,-278.5687561035156,155.23126220703125,81.01875305175781
1729696541755760400,12.916760498046875,-278.4750061035156,155.23126220703125,80.8687515258789
1729696541765760300,12.92676025390625,-278.2125244140625,155.28750610351562,80.79375457763672
1729696541775760400,12.936760498046874,-278.1000061035156,155.4562530517578,80.70000457763672
1729696541785760300,12.94676025390625,-277.96875,155.34375,80.70000457763672
1729696541795760400,12.956760498046876,-278.23126220703125,155.23126220703125,80.73750305175781
1729696541805760300,12.96676025390625,-278.3625183105469,155.56875610351562,80.94375610351562
1729696541815760400,12.976760498046875,-278.32501220703125,155.86875915527344,80.92500305175781
1729696541825760300,12.98676025390625,-278.1187744140625,156.07501220703125,81.01875305175781
1729696541835760400,12.996760498046875,-278.2125244140625,156.03750610351562,81.07500457763672
1729696541845760300,13.00676025390625,-278.4937744140625,155.79376220703125,80.83125305175781
1729696541855760400,13.016760498046875,-278.5875244140625,155.79376220703125,80.92500305175781
1729696541865760300,13.02676025390625,-278.6812744140625,155.8312530517578,81.0562515258789
1729696541875760400,13.036760498046876,-278.79376220703125,155.85000610351562,81.2437515258789
1729696541885760300,13.04676025390625,-278.8312683105469,155.9250030517578,81.09375
1729696541895760400,13.056760498046875,-278.60626220703125,155.7375030517578,81.07500457763672
1729696541905760300,13.06676025390625,-278.7562561035156,155.9250030517578,80.85000610351562
1729696541915760400,13.076760498046875,-278.8125,155.94375610351562,80.7750015258789
1729696541925760300,13.08676025390625,-278.41876220703125,155.86875915527344,80.92500305175781
1729696541935760400,13.096760498046875,-278.60626220703125,155.86875915527344,80.9625015258789
1729696541945760300,13.10676025390625,-278.7562561035156,156.1125030517578,80.56875610351562
1729696541955760400,13.116760498046874,-278.7750244140625,156.0187530517578,80.53125
1729696541965760300,13.12676025390625,-278.7375183105469,155.86875915527344,80.5875015258789
1729696541975760400,13.136760498046876,-278.9625244140625,155.88751220703125,80.51250457763672
1729696541985760300,13.14676025390625,-279,155.60626220703125,80.55000305175781
1729696541995760400,13.156760498046875,-278.7562561035156,155.58750915527344,80.71875
1729696542005760300,13.16676025390625,-278.98126220703125,155.86875915527344,80.7750015258789
1729696542015760400,13.176760498046875,-278.70001220703125,155.70001220703125,80.51250457763672
1729696542025760300,13.18676025390625,-278.3062744140625,155.40000915527344,80.4375
1729696542035760400,13.196760498046874,-278.23126220703125,155.51251220703125,80.51250457763672
1729696542045760300,13.20676025390625,-278.53125,155.4375,80.41875457763672
1729696542055760400,13.216760498046876,-278.5500183105469,155.3625030517578,80.5875015258789
1729696542065760300,13.22676025390625,-278.5687561035156,155.625,80.38125610351562
1729696542075760400,13.236760498046875,-278.6625061035156,155.66250610351562,80.19375610351562
1729696542085760300,13.24676025390625,-278.6812744140625,155.5500030517578,80.10000610351562
1729696542095760400,13.256760498046875,-279.0375061035156,155.5500030517578,80.2125015258789
1729696542105760300,13.26676025390625,-279.07501220703125,155.6437530517578,80.47500610351562
1729696542115760400,13.276760498046874,-279.16876220703125,155.5500030517578,80.17500305175781
1729696542125760300,13.28676025390625,-278.9625244140625,155.5500030517578,80.34375
1729696542135760400,13.296760498046876,-278.90625,155.58750915527344,80.17500305175781
1729696542145760300,13.30676025390625,-278.8312683105469,155.56875610351562,80.4375
1729696542155760400,13.316760498046875,-278.7750244140625,155.56875610351562,80.53125
1729696542165760300,13.32676025390625,-278.8312683105469,155.4562530517578,80.625
1729696542175760400,13.336760498046875,-278.8312683105469,155.60626220703125,80.75625610351562
1729696542185760300,13.34676025390625,-278.9625244140625,155.53125,80.66250610351562
1729696542195760400,13.356760498046874,-278.7562561035156,155.8312530517578,80.88750457763672
1729696542205760300,13.36676025390625,-278.7375183105469,155.94375610351562,80.8687515258789
1729696542215760400,13.376760498046876,-279,156.24375915527344,81.03750610351562
1729696542225760300,13.38676025390625,-279.0562744140625,155.96250915527344,81.1875
1729696542235760400,13.396760498046875,-279.1875,155.85000610351562,81.20625305175781
1729696542245760300,13.40676025390625,-278.98126220703125,155.94375610351562,81.0562515258789
1729696542255760400,13.416760498046875,-278.8500061035156,155.8312530517578,81.03750610351562
1729696542265760300,13.42676025390625,-278.9437561035156,155.8312530517578,81.1875
1729696542275760400,13.436760498046874,-279.1125183105469,155.66250610351562,81.1500015258789
1729696542285760300,13.44676025390625,-278.8125,155.60626220703125,81.11250305175781
1729696542295760400,13.456760498046876,-278.41876220703125,155.49375915527344,81.11250305175781
1729696542305760300,13.46676025390625,-278.5687561035156,155.75625610351562,81.07500457763672
1729696542315760400,13.476760498046875,-278.41876220703125,155.8312530517578,81.0562515258789
1729696542325760300,13.48676025390625,-278.4750061035156,155.94375610351562,81.28125
1729696542335760400,13.496760498046875,-278.51251220703125,155.9250030517578,81.4312515258789
1729696542345760300,13.50676025390625,-278.32501220703125,156,81.35625457763672
1729696542355760400,13.516760498046875,-278.23126220703125,155.94375610351562,81.35625457763672
1729696542365760300,13.52676025390625,-278.34375,155.8312530517578,81.41250610351562
1729696542375760400,13.536760498046876,-278.3062744140625,155.58750915527344,81.35625457763672
1729696542385760300,13.54676025390625,-278.04376220703125,155.47500610351562,81.375
1729696542395760400,13.556760498046875,-278.1000061035156,155.49375915527344,81.30000305175781
1729696542405760300,13.56676025390625,-278.2875061035156,155.2687530517578,81.26250457763672
1729696542415760400,13.576760498046875,-278.1937561035156,155.23126220703125,81.07500457763672
1729696542425760300,13.58676025390625,-278.4375,155.0812530517578,80.94375610351562
1729696542435760400,13.596760498046875,-278.4750061035156,155.0812530517578,81.13125610351562
1729696542445760300,13.60676025390625,-278.6437683105469,155.28750610351562,81.26250457763672
1729696542455760400,13.616760498046874,-278.79376220703125,155.28750610351562,81.30000305175781
1729696542465760300,13.62676025390625,-278.9625244140625,155.2687530517578,81.375
1729696542475760400,13.636760498046876,-278.8312683105469,155.21250915527344,81.50625610351562
1729696542485760300,13.64676025390625,-278.7375183105469,155.13751220703125,81.375
1729696542495760400,13.656760498046875,-278.8312683105469,155.1750030517578,81.375
1729696542505760300,13.66676025390625,-278.6437683105469,155.23126220703125,81.5625
1729696542515760400,13.676760498046875,-278.6625061035156,155.25,81.48750305175781
1729696542525760300,13.68676025390625,-278.71875,155.11875915527344,81.1875
1729696542535760400,13.696760498046874,-278.5500183105469,155.21250915527344,81.22500610351562
1729696542545760300,13.70676025390625,-278.51251220703125,154.9875030517578,80.98125457763672
1729696542555760400,13.716760498046876,-278.51251220703125,154.8937530517578,80.98125457763672
1729696542565760300,13.72676025390625,-278.3625183105469,155.25,81.11250305175781
