time,seconds_elapsed,z,y,x
1729696528939877000,0.100877197265625,9.693623542785645,0.5027918815612793,-0.4142574071884155
1729696528949645300,0.110645263671875,9.660123825073242,0.4860421121120453,-0.4334000051021576
1729696528959413200,0.120413330078125,9.650552749633789,0.48843491077423096,-0.39990049600601196
1729696528969181400,0.130181396484375,9.688838005065918,0.5458626747131348,-0.39990049600601196
1729696528978949400,0.139949462890625,9.696016311645508,0.49322056770324707,-0.385543555021286
1729696528988717600,0.149717529296875,9.696016311645508,0.4740779995918274,-0.4262215197086334
1729696528998485800,0.15948583984375,9.669695854187012,0.5338985323905945,-0.4549354016780853
1729696529008253700,0.169253662109375,9.638588905334473,0.4549354016780853,-0.43579283356666565
1729696529018022000,0.17902197265625,9.650552749633789,0.49322056770324707,-0.39511483907699585
1729696529027789800,0.188789794921875,9.700801849365234,0.4860421121120453,-0.3616153299808502
1729696529037558000,0.19855810546875,9.707980155944824,0.5075774788856506,-0.33050861954689026
1729696529047326000,0.208325927734375,9.688838005065918,0.4980062246322632,-0.4046861231327057
1729696529057094100,0.21809423828125,9.662516593933105,0.49322056770324707,-0.4142574071884155
1729696529066862000,0.227862060546875,9.645767211914062,0.4668995141983032,-0.41186460852622986
1729696529076630300,0.23763037109375,9.662516593933105,0.5003990530967712,-0.385543555021286
1729696529086398200,0.247398193359375,9.676874160766602,0.4980062246322632,-0.368793785572052
1729696529096166400,0.25716650390625,9.693623542785645,0.5051847100257874,-0.4262215197086334
1729696529105934300,0.266934326171875,9.669695854187012,0.4788636267185211,-0.3975076675415039
1729696529115702500,0.27670263671875,9.676874160766602,0.5027918815612793,-0.39990049600601196
1729696529125470500,0.286470458984375,9.657731056213379,0.4788636267185211,-0.41186460852622986
1729696529135238700,0.29623876953125,9.686445236206055,0.4980062246322632,-0.40229329466819763
1729696529145006800,0.3060068359375,9.698409080505371,0.5003990530967712,-0.36640095710754395
1729696529154774800,0.31577490234375,9.686445236206055,0.4956133961677551,-0.3640081584453583
1729696529164543000,0.32554296875,9.676874160766602,0.5195416212081909,-0.3927220106124878
1729696529174311000,0.335310791015625,9.669695854187012,0.5099703073501587,-0.4262215197086334
1729696529184079000,0.3450791015625,9.672088623046875,0.5051847100257874,-0.4094717800617218
1729696529193847000,0.354846923828125,9.674481391906738,0.490827739238739,-0.40707895159721375
1729696529203615200,0.364615234375,9.684052467346191,0.4956133961677551,-0.3927220106124878
1729696529213383200,0.374383056640625,9.681659698486328,0.47168517112731934,-0.4094717800617218
1729696529223151400,0.3841513671875,9.672088623046875,0.4956133961677551,-0.3520440459251404
1729696529232919600,0.39391943359375,9.669695854187012,0.4956133961677551,-0.37836506962776184
1729696529242687500,0.4036875,9.674481391906738,0.4668995141983032,-0.40229329466819763
1729696529252455700,0.41345556640625,9.684052467346191,0.48364928364753723,-0.4286143481731415
1729696529262223600,0.4232236328125,9.676874160766602,0.4860421121120453,-0.39990049600601196
1729696529271991800,0.43299169921875,9.686445236206055,0.4788636267185211,-0.4166502356529236
1729696529281759700,0.442759765625,9.664909362792969,0.524327278137207,-0.37597227096557617
1729696529291528000,0.45252783203125,9.667302131652832,0.5051847100257874,-0.40707895159721375
1729696529301296000,0.462296142578125,9.667302131652832,0.5315057039260864,-0.4142574071884155
1729696529311064000,0.47206396484375,9.686445236206055,0.490827739238739,-0.40229329466819763
1729696529320832300,0.481832275390625,9.660123825073242,0.5003990530967712,-0.4166502356529236
1729696529330600200,0.49160009765625,9.660123825073242,0.46450668573379517,-0.37597227096557617
1729696529340368400,0.501368408203125,9.681659698486328,0.5003990530967712,-0.37118661403656006
1729696529350136300,0.51113623046875,9.679266929626465,0.5027918815612793,-0.39511483907699585
1729696529359904500,0.520904541015625,9.674481391906738,0.48364928364753723,-0.41904306411743164
1729696529369672400,0.53067236328125,9.669695854187012,0.4788636267185211,-0.41904306411743164
1729696529379440600,0.540440673828125,9.684052467346191,0.4788636267185211,-0.4262215197086334
1729696529389208600,0.55020849609375,9.674481391906738,0.5267201066017151,-0.3975076675415039
1729696529398976800,0.559976806640625,9.681659698486328,0.47647079825401306,-0.3735794425010681
1729696529408745000,0.569744873046875,9.681659698486328,0.4980062246322632,-0.368793785572052
1729696529418513000,0.579512939453125,9.686445236206055,0.5171487927436829,-0.3975076675415039
1729696529428281000,0.589281005859375,9.679266929626465,0.5027918815612793,-0.40707895159721375
1729696529438049000,0.599049072265625,9.674481391906738,0.5051847100257874,-0.39032918214797974
1729696529447817200,0.608817138671875,9.684052467346191,0.5051847100257874,-0.37597227096557617
1729696529457585200,0.618585205078125,9.667302131652832,0.5003990530967712,-0.39990049600601196
1729696529467353300,0.628353271484375,9.679266929626465,0.5075774788856506,-0.4046861231327057
1729696529477121300,0.638121337890625,9.660123825073242,0.5123631358146667,-0.37836506962776184
1729696529486889500,0.647889404296875,9.672088623046875,0.4980062246322632,-0.41186460852622986
1729696529496657400,0.657657470703125,9.679266929626465,0.4860421121120453,-0.40707895159721375
1729696529506425600,0.667425537109375,9.672088623046875,0.5075774788856506,-0.38315072655677795
1729696529516193800,0.67719384765625,9.672088623046875,0.5051847100257874,-0.3568296730518341
1729696529525961700,0.686961669921875,9.676874160766602,0.5147559642791748,-0.3975076675415039
1729696529535730000,0.69672998046875,9.674481391906738,0.5051847100257874,-0.40707895159721375
1729696529545497900,0.706497802734375,9.691230773925781,0.47647079825401306,-0.4094717800617218
1729696529555266000,0.71626611328125,9.691230773925781,0.48364928364753723,-0.4214358925819397
1729696529565034000,0.726033935546875,9.681659698486328,0.4788636267185211,-0.41904306411743164
1729696529574802200,0.73580224609375,9.686445236206055,0.45254257321357727,-0.40229329466819763
1729696529584570000,0.745570068359375,9.676874160766602,0.47647079825401306,-0.3975076675415039
1729696529594338300,0.75533837890625,9.686445236206055,0.4812564551830292,-0.4046861231327057
1729696529604106500,0.7651064453125,9.684052467346191,0.5027918815612793,-0.4094717800617218
1729696529613874400,0.77487451171875,9.679266929626465,0.4956133961677551,-0.43579283356666565
1729696529623642600,0.784642578125,9.676874160766602,0.49322056770324707,-0.40229329466819763
1729696529633410600,0.79441064453125,9.696016311645508,0.48364928364753723,-0.4094717800617218
1729696529643178800,0.8041787109375,9.688838005065918,0.5530411601066589,-0.385543555021286
1729696529652946700,0.81394677734375,9.674481391906738,0.5123631358146667,-0.3496512174606323
1729696529662715000,0.82371484375,9.686445236206055,0.5315057039260864,-0.38793638348579407
1729696529672483000,0.833483154296875,9.676874160766602,0.4956133961677551,-0.3807578980922699
1729696529682251000,0.8432509765625,9.684052467346191,0.524327278137207,-0.4094717800617218
1729696529692019200,0.853019287109375,9.676874160766602,0.5051847100257874,-0.39511483907699585
1729696529701787100,0.862787109375,9.681659698486328,0.4980062246322632,-0.3735794425010681
1729696529711555300,0.872555419921875,9.684052467346191,0.5027918815612793,-0.37597227096557617
1729696529721323300,0.8823232421875,9.698409080505371,0.5147559642791748,-0.38793638348579407
1729696529731091500,0.892091552734375,9.676874160766602,0.4956133961677551,-0.41904306411743164
1729696529740859400,0.901859375,9.691230773925781,0.48364928364753723,-0.3807578980922699
1729696529750627600,0.911627685546875,9.679266929626465,0.5051847100257874,-0.385543555021286
1729696529760395800,0.921395751953125,9.681659698486328,0.48364928364753723,-0.39032918214797974
1729696529770163700,0.931163818359375,9.674481391906738,0.4956133961677551,-0.40707895159721375
1729696529779932000,0.940931884765625,9.676874160766602,0.48364928364753723,-0.4142574071884155
1729696529789699800,0.950699951171875,9.686445236206055,0.5195416212081909,-0.42382872104644775
1729696529799468000,0.960468017578125,9.686445236206055,0.4621138870716095,-0.44297128915786743
1729696529809236200,0.970236328125,9.684052467346191,0.49322056770324707,-0.4046861231327057
1729696529819004200,0.980004150390625,9.688838005065918,0.4740779995918274,-0.41904306411743164
1729696529828772400,0.9897724609375,9.688838005065918,0.46450668573379517,-0.37597227096557617
1729696529838540300,0.999540283203125,9.698409080505371,0.4980062246322632,-0.4166502356529236
1729696529848308500,1.00930859375,9.667302131652832,0.5195416212081909,-0.39990049600601196
1729696529858076400,1.019076416015625,9.667302131652832,0.524327278137207,-0.4262215197086334
1729696529867844600,1.0288447265625,9.700801849365234,0.5051847100257874,-0.39511483907699585
1729696529877612500,1.038612548828125,9.679266929626465,0.4860421121120453,-0.3927220106124878
1729696529887380700,1.048380615234375,9.688838005065918,0.524327278137207,-0.385543555021286
1729696529897149000,1.05814892578125,9.688838005065918,0.5195416212081909,-0.3975076675415039
1729696529906916900,1.067916748046875,9.686445236206055,0.5291129350662231,-0.4094717800617218
1729696529916685000,1.07768505859375,9.669695854187012,0.5697908997535706,-0.4046861231327057
1729696529926453000,1.087452880859375,9.679266929626465,0.524327278137207,-0.4453641176223755
1729696529936221200,1.09722119140625,9.686445236206055,0.521934449672699,-0.368793785572052
1729696529945989000,1.106989013671875,9.691230773925781,0.4453641176223755,-0.39032918214797974
1729696529955757300,1.11675732421875,9.691230773925781,0.4692923426628113,-0.4142574071884155
1729696529965525200,1.126525146484375,9.679266929626465,0.45254257321357727,-0.40229329466819763
1729696529975293400,1.13629345703125,9.672088623046875,0.4860421121120453,-0.3448655605316162
1729696529985061600,1.1460615234375,9.674481391906738,0.490827739238739,-0.35922250151634216
1729696529994829600,1.15582958984375,9.686445236206055,0.5123631358146667,-0.34725838899612427
1729696530004597800,1.16559765625,9.679266929626465,0.4812564551830292,-0.33050861954689026
1729696530014365700,1.17536572265625,9.691230773925781,0.5099703073501587,-0.3735794425010681
1729696530024134000,1.1851337890625,9.717552185058594,0.5386841893196106,-0.4980062246322632
1729696530033902000,1.194902099609375,9.674481391906738,0.46450668573379517,-0.5386841893196106
1729696530043670000,1.204669921875,9.667302131652832,0.4381856322288513,-0.4142574071884155
1729696530053438200,1.214438232421875,9.684052467346191,0.5267201066017151,-0.40707895159721375
1729696530063206100,1.2242060546875,9.693623542785645,0.5745765566825867,-0.31375887989997864
1729696530072974300,1.233974365234375,9.684052467346191,0.4980062246322632,-0.2727817893028259
1729696530082742500,1.243742431640625,9.693623542785645,0.42382872104644775,-0.33050861954689026
1729696530092510500,1.253510498046875,9.698409080505371,0.5099703073501587,-0.5147559642791748
1729696530102278700,1.263278564453125,9.662516593933105,0.521934449672699,-0.6367899179458618
1729696530112046600,1.273046630859375,9.626625061035156,0.4453641176223755,-0.4046861231327057
1729696530121814800,1.282814697265625,9.664909362792969,0.47647079825401306,-0.2994019389152527
1729696530131582700,1.292582763671875,9.710372924804688,0.5650052428245544,-0.2679961323738098
1729696530141351000,1.302350830078125,9.710372924804688,0.5147559642791748,-0.3568296730518341
1729696530151119000,1.312119140625,9.676874160766602,0.42382872104644775,-0.4453641176223755
1729696530160887000,1.321886962890625,9.674481391906738,0.4788636267185211,-0.5362913608551025
1729696530170655200,1.3316552734375,9.650552749633789,0.5291129350662231,-0.5171487927436829
1729696530180423200,1.341423095703125,9.688838005065918,0.5530411601066589,-0.3616153299808502
1729696530190191400,1.35119140625,9.693623542785645,0.47647079825401306,-0.22492532432079315
1729696530199959600,1.36095947265625,9.707980155944824,0.4549354016780853,-0.2799602448940277
1729696530209727500,1.3707275390625,9.719944953918457,0.5506483316421509,-0.4334000051021576
1729696530219495700,1.38049560546875,9.674481391906738,0.5051847100257874,-0.5291129350662231
1729696530229263600,1.390263671875,9.631410598754883,0.44775694608688354,-0.43100717663764954
1729696530239031800,1.40003173828125,9.676874160766602,0.5003990530967712,-0.3568296730518341
1729696530248799700,1.4097998046875,9.72233772277832,0.579362154006958,-0.3329014480113983
1729696530258568000,1.41956787109375,9.717552185058594,0.5147559642791748,-0.3113660514354706
1729696530268336000,1.429336181640625,9.703194618225098,0.45972105860710144,-0.37118661403656006
1729696530278104000,1.43910400390625,9.660123825073242,0.48843491077423096,-0.4860421121120453
1729696530287872300,1.448872314453125,9.686445236206055,0.47168517112731934,-0.5027918815612793
1729696530297640400,1.458640380859375,9.657731056213379,0.5123631358146667,-0.43100717663764954
1729696530307408400,1.468408447265625,9.684052467346191,0.4573282301425934,-0.38315072655677795
1729696530317176600,1.478176513671875,9.691230773925781,0.5195416212081909,-0.31854450702667236
1729696530326944500,1.487944580078125,9.696016311645508,0.5602195858955383,-0.39032918214797974
1729696530336712700,1.497712646484375,9.676874160766602,0.4668995141983032,-0.41904306411743164
1729696530346480600,1.507480712890625,9.662516593933105,0.4501497745513916,-0.46450668573379517
1729696530356248800,1.517248779296875,9.679266929626465,0.5171487927436829,-0.4668995141983032
1729696530366017000,1.52701708984375,9.700801849365234,0.5386841893196106,-0.4046861231327057
1729696530375785000,1.536784912109375,9.688838005065918,0.5051847100257874,-0.30658039450645447
1729696530385553200,1.54655322265625,9.705587387084961,0.490827739238739,-0.30658039450645447
1729696530395321000,1.556321044921875,9.684052467346191,0.5147559642791748,-0.37597227096557617
1729696530405089300,1.56608935546875,9.674481391906738,0.49322056770324707,-0.524327278137207
1729696530414857500,1.575857421875,9.669695854187012,0.5362913608551025,-0.4621138870716095
1729696530424625400,1.58562548828125,9.681659698486328,0.4501497745513916,-0.38315072655677795
1729696530434393600,1.5953935546875,9.684052467346191,0.5195416212081909,-0.3041875660419464
1729696530444161800,1.605161865234375,9.700801849365234,0.5171487927436829,-0.34247273206710815
1729696530453929700,1.6149296875,9.696016311645508,0.46450668573379517,-0.3113660514354706
1729696530463698000,1.624697998046875,9.691230773925781,0.5003990530967712,-0.3640081584453583
1729696530473465900,1.6344658203125,9.681659698486328,0.5578267574310303,-0.4501497745513916
1729696530483234000,1.644234130859375,9.660123825073242,0.5554339289665222,-0.43579283356666565
1729696530493002000,1.654001953125,9.693623542785645,0.48843491077423096,-0.3568296730518341
1729696530502770200,1.663770263671875,9.691230773925781,0.48843491077423096,-0.37836506962776184
1729696530512538400,1.673538330078125,9.712766647338867,0.4980062246322632,-0.3807578980922699
1729696530522306300,1.683306396484375,9.684052467346191,0.47168517112731934,-0.4262215197086334
1729696530532074500,1.693074462890625,9.693623542785645,0.48364928364753723,-0.42382872104644775
1729696530541842700,1.7028427734375,9.686445236206055,0.4549354016780853,-0.4381856322288513
1729696530551610600,1.712610595703125,9.691230773925781,0.5530411601066589,-0.41186460852622986
1729696530561378800,1.72237890625,9.686445236206055,0.48364928364753723,-0.37118661403656006
1729696530571146800,1.732146728515625,9.672088623046875,0.4740779995918274,-0.3616153299808502
1729696530580915000,1.7419150390625,9.691230773925781,0.4860421121120453,-0.35443684458732605
1729696530590683100,1.75168310546875,9.686445236206055,0.5051847100257874,-0.45254257321357727
1729696530600451000,1.761451171875,9.681659698486328,0.4860421121120453,-0.4214358925819397
1729696530610219300,1.77121923828125,9.681659698486328,0.4549354016780853,-0.40229329466819763
1729696530619987200,1.7809873046875,9.676874160766602,0.5123631358146667,-0.37836506962776184
1729696530629755400,1.79075537109375,9.688838005065918,0.5075774788856506,-0.38315072655677795
1729696530639523600,1.800523681640625,9.688838005065918,0.5099703073501587,-0.3568296730518341
1729696530649291500,1.81029150390625,9.688838005065918,0.47647079825401306,-0.43100717663764954
1729696530659059700,1.820059814453125,9.686445236206055,0.47168517112731934,-0.41186460852622986
1729696530668827600,1.82982763671875,9.698409080505371,0.5458626747131348,-0.385543555021286
1729696530678595800,1.839595947265625,9.669695854187012,0.5123631358146667,-0.37597227096557617
1729696530688364000,1.849364013671875,9.688838005065918,0.4692923426628113,-0.3329014480113983
1729696530698132000,1.859132080078125,9.688838005065918,0.4980062246322632,-0.39511483907699585
1729696530707900200,1.868900146484375,9.688838005065918,0.5123631358146667,-0.4453641176223755
1729696530717668400,1.87866845703125,9.672088623046875,0.5075774788856506,-0.43579283356666565
1729696530727436300,1.888436279296875,9.672088623046875,0.48364928364753723,-0.3927220106124878
1729696530737204500,1.89820458984375,9.676874160766602,0.5075774788856506,-0.36640095710754395
1729696530746972700,1.90797265625,9.698409080505371,0.5458626747131348,-0.34725838899612427
1729696530756740600,1.91774072265625,9.688838005065918,0.4980062246322632,-0.35443684458732605
1729696530766508800,1.9275087890625,9.676874160766602,0.4549354016780853,-0.4142574071884155
1729696530776276700,1.93727685546875,9.688838005065918,0.4740779995918274,-0.4334000051021576
1729696530786045000,1.947044921875,9.679266929626465,0.49322056770324707,-0.44297128915786743
1729696530795813000,1.956813232421875,9.679266929626465,0.48364928364753723,-0.39032918214797974
1729696530805581000,1.9665810546875,9.698409080505371,0.5099703073501587,-0.3448655605316162
1729696530815349200,1.976349365234375,9.698409080505371,0.5315057039260864,-0.368793785572052
1729696530825117400,1.986117431640625,9.679266929626465,0.5075774788856506,-0.4046861231327057
1729696530834885400,1.995885498046875,9.667302131652832,0.5003990530967712,-0.4214358925819397
1729696530844653600,2.005653564453125,9.672088623046875,0.4980062246322632,-0.41904306411743164
1729696530854421500,2.01542138671875,9.698409080505371,0.490827739238739,-0.3927220106124878
1729696530864189700,2.025189697265625,9.681659698486328,0.5147559642791748,-0.3616153299808502
1729696530873958000,2.0349580078125,9.691230773925781,0.5003990530967712,-0.36640095710754395
1729696530883725800,2.044725830078125,9.684052467346191,0.524327278137207,-0.4549354016780853
1729696530893494000,2.054493896484375,9.684052467346191,0.5315057039260864,-0.44775694608688354
1729696530903262200,2.06426220703125,9.681659698486328,0.48364928364753723,-0.42382872104644775
1729696530913030100,2.074030029296875,9.696016311645508,0.4740779995918274,-0.4046861231327057
1729696530922798300,2.08379833984375,9.703194618225098,0.5027918815612793,-0.385543555021286
1729696530932566500,2.09356640625,9.712766647338867,0.4980062246322632,-0.33050861954689026
1729696530942334500,2.10333447265625,9.681659698486328,0.49322056770324707,-0.3927220106124878
1729696530952102700,2.1131025390625,9.679266929626465,0.4956133961677551,-0.4166502356529236
1729696530961870800,2.122870849609375,9.686445236206055,0.4812564551830292,-0.39032918214797974
1729696530971638800,2.132638671875,9.693623542785645,0.5171487927436829,-0.3927220106124878
1729696530981407000,2.142406982421875,9.686445236206055,0.5075774788856506,-0.385543555021286
1729696530991175000,2.1521748046875,9.700801849365234,0.4980062246322632,-0.3448655605316162
1729696531000943000,2.161943115234375,9.698409080505371,0.4549354016780853,-0.39032918214797974
1729696531010711300,2.171711181640625,9.696016311645508,0.5123631358146667,-0.4214358925819397
1729696531020479200,2.181479248046875,9.698409080505371,0.4621138870716095,-0.4286143481731415
1729696531030247400,2.191247314453125,9.669695854187012,0.4788636267185211,-0.4334000051021576
1729696531040015600,2.201015625,9.676874160766602,0.49322056770324707,-0.38793638348579407
1729696531049783600,2.210783447265625,9.696016311645508,0.5075774788856506,-0.34725838899612427
1729696531059551700,2.2205517578125,9.676874160766602,0.46450668573379517,-0.33529427647590637
1729696531069319700,2.230319580078125,9.686445236206055,0.4860421121120453,-0.38793638348579407
1729696531079087900,2.240087890625,9.691230773925781,0.5315057039260864,-0.4262215197086334
1729696531088856000,2.24985595703125,9.693623542785645,0.49322056770324707,-0.4214358925819397
1729696531098624000,2.2596240234375,9.669695854187012,0.5123631358146667,-0.4142574071884155
1729696531108392200,2.26939208984375,9.688838005065918,0.48843491077423096,-0.3616153299808502
1729696531118160400,2.279160400390625,9.712766647338867,0.5051847100257874,-0.34247273206710815
1729696531127928300,2.28892822265625,9.696016311645508,0.4980062246322632,-0.3807578980922699
1729696531137696500,2.298696533203125,9.693623542785645,0.4956133961677551,-0.4046861231327057
1729696531147464700,2.308464599609375,9.688838005065918,0.5147559642791748,-0.4381856322288513
1729696531157232600,2.318232666015625,9.667302131652832,0.5195416212081909,-0.4334000051021576
1729696531167000800,2.328000732421875,9.696016311645508,0.5003990530967712,-0.385543555021286
1729696531176769000,2.33776904296875,9.693623542785645,0.5099703073501587,-0.36640095710754395
1729696531186537000,2.347536865234375,9.703194618225098,0.5195416212081909,-0.39032918214797974
1729696531196305200,2.35730517578125,9.696016311645508,0.4980062246322632,-0.41186460852622986
1729696531206073300,2.3670732421875,9.669695854187012,0.5195416212081909,-0.4286143481731415
1729696531215841300,2.37684130859375,9.688838005065918,0.5099703073501587,-0.4094717800617218
1729696531225609500,2.386609375,9.691230773925781,0.4860421121120453,-0.4046861231327057
1729696531235377700,2.396377685546875,9.688838005065918,0.5195416212081909,-0.37836506962776184
1729696531245145600,2.4061455078125,9.707980155944824,0.48364928364753723,-0.4046861231327057
1729696531254913800,2.415913818359375,9.686445236206055,0.44775694608688354,-0.3807578980922699
1729696531264682000,2.425681884765625,9.672088623046875,0.5099703073501587,-0.4286143481731415
1729696531274450000,2.435449951171875,9.686445236206055,0.4692923426628113,-0.44775694608688354
1729696531284218000,2.445218017578125,9.681659698486328,0.48843491077423096,-0.3975076675415039
1729696531293986300,2.454986328125,9.696016311645508,0.47168517112731934,-0.39990049600601196
1729696531303754200,2.464754150390625,9.693623542785645,0.5051847100257874,-0.40707895159721375
1729696531313522400,2.4745224609375,9.662516593933105,0.4740779995918274,-0.3807578980922699
1729696531323290600,2.48429052734375,9.676874160766602,0.5291129350662231,-0.4214358925819397
1729696531333058600,2.49405859375,9.667302131652832,0.4740779995918274,-0.4166502356529236
1729696531342826800,2.50382666015625,9.688838005065918,0.4956133961677551,-0.39990049600601196
1729696531352595000,2.513594970703125,9.693623542785645,0.4956133961677551,-0.3807578980922699
1729696531362363000,2.52336279296875,9.686445236206055,0.490827739238739,-0.37836506962776184
1729696531372131000,2.533131103515625,9.681659698486328,0.5051847100257874,-0.35443684458732605
1729696531381899300,2.542899169921875,9.681659698486328,0.5267201066017151,-0.3927220106124878
1729696531391667200,2.552667236328125,9.674481391906738,0.5195416212081909,-0.38315072655677795
1729696531401435400,2.562435302734375,9.691230773925781,0.4980062246322632,-0.37836506962776184
1729696531411203300,2.572203369140625,9.696016311645508,0.5338985323905945,-0.44297128915786743
1729696531420971500,2.581971435546875,9.686445236206055,0.5171487927436829,-0.37836506962776184
1729696531430739700,2.59173974609375,9.679266929626465,0.4668995141983032,-0.33050861954689026
1729696531440508000,2.6015078125,9.686445236206055,0.5123631358146667,-0.37836506962776184
1729696531450275800,2.61127587890625,9.691230773925781,0.521934449672699,-0.39511483907699585
1729696531460044000,2.6210439453125,9.710372924804688,0.5362913608551025,-0.37836506962776184
1729696531469812000,2.63081201171875,9.674481391906738,0.4668995141983032,-0.3927220106124878
1729696531479580200,2.640580078125,9.684052467346191,0.490827739238739,-0.4549354016780853
1729696531489348400,2.650348388671875,9.693623542785645,0.5817549824714661,-0.4166502356529236
1729696531499116500,2.660116455078125,9.684052467346191,0.5338985323905945,-0.3400799036026001
1729696531508884500,2.669884521484375,9.691230773925781,0.47168517112731934,-0.2994019389152527
1729696531518652700,2.679652587890625,9.693623542785645,0.5123631358146667,-0.38793638348579407
1729696531528420900,2.6894208984375,9.688838005065918,0.5769693851470947,-0.4501497745513916
1729696531538188800,2.699188720703125,9.676874160766602,0.4740779995918274,-0.4453641176223755
1729696531547957000,2.70895703125,9.669695854187012,0.45254257321357727,-0.37118661403656006
1729696531557725200,2.71872509765625,9.696016311645508,0.5338985323905945,-0.38793638348579407
1729696531567493000,2.7284931640625,9.691230773925781,0.5123631358146667,-0.39032918214797974
1729696531577261300,2.73826123046875,9.672088623046875,0.4692923426628113,-0.3735794425010681
1729696531587029500,2.748029541015625,9.688838005065918,0.44775694608688354,-0.368793785572052
1729696531596797400,2.75779736328125,9.672088623046875,0.5195416212081909,-0.4453641176223755
1729696531606565600,2.767565673828125,9.686445236206055,0.5506483316421509,-0.42382872104644775
1729696531616333800,2.777333740234375,9.664909362792969,0.45972105860710144,-0.368793785572052
1729696531626101800,2.787101806640625,9.693623542785645,0.4381856322288513,-0.3520440459251404
1729696531635870000,2.796869873046875,9.717552185058594,0.5267201066017151,-0.4094717800617218
1729696531645638100,2.80663818359375,9.696016311645508,0.5482555031776428,-0.4740779995918274
1729696531655406000,2.816406005859375,9.676874160766602,0.4286143481731415,-0.41186460852622986
1729696531665174300,2.82617431640625,9.672088623046875,0.490827739238739,-0.37836506962776184
1729696531674942500,2.8359423828125,9.703194618225098,0.5267201066017151,-0.36640095710754395
1729696531684710700,2.845710693359375,9.700801849365234,0.5075774788856506,-0.41186460852622986
1729696531694478600,2.855478515625,9.672088623046875,0.47168517112731934,-0.3640081584453583
1729696531704246800,2.865246826171875,9.681659698486328,0.4549354016780853,-0.3616153299808502
1729696531714015000,2.875014892578125,9.672088623046875,0.5075774788856506,-0.4501497745513916
1729696531723783000,2.884782958984375,9.688838005065918,0.5410770177841187,-0.4214358925819397
1729696531733551000,2.894551025390625,9.667302131652832,0.4286143481731415,-0.39032918214797974
1729696531743319300,2.9043193359375,9.684052467346191,0.4692923426628113,-0.41186460852622986
1729696531753087200,2.914087158203125,9.686445236206055,0.5051847100257874,-0.4334000051021576
1729696531762855400,2.92385546875,9.684052467346191,0.5027918815612793,-0.4142574071884155
1729696531772623600,2.93362353515625,9.674481391906738,0.4692923426628113,-0.37597227096557617
1729696531782391600,2.9433916015625,9.672088623046875,0.5027918815612793,-0.3807578980922699
1729696531792159700,2.95315966796875,9.707980155944824,0.5195416212081909,-0.4214358925819397
1729696531801928000,2.962927978515625,9.698409080505371,0.5075774788856506,-0.40229329466819763
1729696531811696000,2.972696044921875,9.669695854187012,0.45972105860710144,-0.35922250151634216
1729696531821464000,2.982464111328125,9.667302131652832,0.4405784606933594,-0.39990049600601196
1729696531831232300,2.992232177734375,9.700801849365234,0.5291129350662231,-0.44775694608688354
1729696531841000400,3.00200048828125,9.686445236206055,0.49322056770324707,-0.39511483907699585
1729696531850768400,3.011768310546875,9.676874160766602,0.4549354016780853,-0.3616153299808502
1729696531860536600,3.02153662109375,9.698409080505371,0.49322056770324707,-0.39990049600601196
1729696531870304800,3.0313046875,9.674481391906738,0.5147559642791748,-0.4262215197086334
1729696531880072700,3.04107275390625,9.679266929626465,0.46450668573379517,-0.39032918214797974
1729696531889841000,3.0508408203125,9.674481391906738,0.44775694608688354,-0.37836506962776184
1729696531899609000,3.060609130859375,9.676874160766602,0.5003990530967712,-0.4094717800617218
1729696531909377000,3.070376953125,9.698409080505371,0.5362913608551025,-0.4166502356529236
1729696531919145200,3.080145263671875,9.681659698486328,0.5482555031776428,-0.3807578980922699
1729696531928913400,3.089913330078125,9.664909362792969,0.490827739238739,-0.33529427647590637
1729696531938681300,3.099681396484375,9.700801849365234,0.5338985323905945,-0.37118661403656006
1729696531948449500,3.109449462890625,9.707980155944824,0.5650052428245544,-0.4142574071884155
1729696531958217700,3.1192177734375,9.684052467346191,0.44297128915786743,-0.385543555021286
1729696531967986000,3.12898583984375,9.696016311645508,0.4549354016780853,-0.37597227096557617
1729696531977753900,3.13875390625,9.676874160766602,0.5578267574310303,-0.42382872104644775
1729696531987522000,3.14852197265625,9.688838005065918,0.5506483316421509,-0.39990049600601196
1729696531997290200,3.158290283203125,9.681659698486328,0.49322056770324707,-0.3616153299808502
1729696532007058200,3.16805810546875,9.686445236206055,0.48843491077423096,-0.36640095710754395
1729696532016826400,3.177826416015625,9.691230773925781,0.490827739238739,-0.4166502356529236
1729696532026594600,3.187594482421875,9.693623542785645,0.5051847100257874,-0.44297128915786743
1729696532036362800,3.19736279296875,9.676874160766602,0.4573282301425934,-0.4166502356529236
1729696532046130700,3.207130615234375,9.686445236206055,0.45972105860710144,-0.38793638348579407
1729696532055899000,3.21689892578125,9.691230773925781,0.5506483316421509,-0.4046861231327057
1729696532065667000,3.2266669921875,9.684052467346191,0.5362913608551025,-0.3927220106124878
1729696532075435000,3.23643505859375,9.676874160766602,0.4334000051021576,-0.3807578980922699
1729696532085203200,3.246203125,9.672088623046875,0.45254257321357727,-0.41186460852622986
1729696532094971400,3.255971435546875,9.681659698486328,0.524327278137207,-0.42382872104644775
1729696532104739600,3.265739501953125,9.688838005065918,0.48364928364753723,-0.39990049600601196
1729696532114507500,3.275507568359375,9.693623542785645,0.4668995141983032,-0.33768710494041443
1729696532124275700,3.285275634765625,9.679266929626465,0.49322056770324707,-0.37836506962776184
1729696532134044000,3.2950439453125,9.712766647338867,0.5291129350662231,-0.4286143481731415
1729696532143811800,3.304811767578125,9.684052467346191,0.5075774788856506,-0.4142574071884155
1729696532153580000,3.314580078125,9.655338287353516,0.4549354016780853,-0.3807578980922699
1729696532163348200,3.32434814453125,9.684052467346191,0.48843491077423096,-0.3975076675415039
1729696532173116400,3.334116455078125,9.681659698486328,0.5147559642791748,-0.4262215197086334
1729696532182884400,3.34388427734375,9.688838005065918,0.5051847100257874,-0.385543555021286
1729696532192652500,3.353652587890625,9.686445236206055,0.47168517112731934,-0.3616153299808502
1729696532202420700,3.363420654296875,9.698409080505371,0.5530411601066589,-0.43100717663764954
1729696532212188700,3.373188720703125,9.679266929626465,0.5171487927436829,-0.4094717800617218
1729696532221956900,3.382956787109375,9.693623542785645,0.47168517112731934,-0.4046861231327057
1729696532231725000,3.39272509765625,9.686445236206055,0.4549354016780853,-0.37836506962776184
1729696532241493200,3.4024931640625,9.693623542785645,0.49322056770324707,-0.40229329466819763
1729696532251261200,3.41226123046875,9.698409080505371,0.5171487927436829,-0.3975076675415039
1729696532261029400,3.422029296875,9.696016311645508,0.4980062246322632,-0.37597227096557617
1729696532270797600,3.431797607421875,9.664909362792969,0.48364928364753723,-0.3975076675415039
1729696532280565500,3.4415654296875,9.674481391906738,0.5123631358146667,-0.40707895159721375
1729696532290333700,3.451333740234375,9.691230773925781,0.5027918815612793,-0.40707895159721375
1729696532300102000,3.461101806640625,9.693623542785645,0.4860421121120453,-0.3807578980922699
1729696532309870000,3.4708701171875,9.676874160766602,0.4549354016780853,-0.3927220106124878
1729696532319638000,3.480637939453125,9.686445236206055,0.5362913608551025,-0.4094717800617218
1729696532329406200,3.49040625,9.676874160766602,0.5075774788856506,-0.3975076675415039
1729696532339174400,3.50017431640625,9.688838005065918,0.48843491077423096,-0.39990049600601196
1729696532348942300,3.5099423828125,9.703194618225098,0.5147559642791748,-0.40707895159721375
1729696532358710500,3.51971044921875,9.705587387084961,0.4860421121120453,-0.3975076675415039
1729696532368478700,3.529478759765625,9.688838005065918,0.48364928364753723,-0.40707895159721375
1729696532378247000,3.539246826171875,9.686445236206055,0.490827739238739,-0.38315072655677795
1729696532388014800,3.549014892578125,9.679266929626465,0.47168517112731934,-0.4046861231327057
1729696532397783000,3.558782958984375,9.674481391906738,0.5315057039260864,-0.3927220106124878
1729696532407551200,3.56855126953125,9.686445236206055,0.5147559642791748,-0.3975076675415039
1729696532417319400,3.5783193359375,9.676874160766602,0.4788636267185211,-0.39990049600601196
1729696532427087400,3.58808740234375,9.688838005065918,0.4812564551830292,-0.3616153299808502
1729696532436855600,3.59785546875,9.698409080505371,0.5315057039260864,-0.4094717800617218
1729696532446623700,3.607623779296875,9.696016311645508,0.46450668573379517,-0.3807578980922699
1729696532456391700,3.6173916015625,9.669695854187012,0.48364928364753723,-0.40229329466819763
1729696532466159900,3.627159912109375,9.703194618225098,0.5171487927436829,-0.3927220106124878
1729696532475928000,3.636927978515625,9.684052467346191,0.490827739238739,-0.4214358925819397
1729696532485696300,3.6466962890625,9.660123825073242,0.45972105860710144,-0.40707895159721375
1729696532495464200,3.656464111328125,9.684052467346191,0.5003990530967712,-0.385543555021286
1729696532505232400,3.666232421875,9.686445236206055,0.4740779995918274,-0.41904306411743164
1729696532515000600,3.67600048828125,9.700801849365234,0.5003990530967712,-0.3975076675415039
1729696532524768800,3.685768798828125,9.688838005065918,0.4860421121120453,-0.37118661403656006
1729696532534536700,3.69553662109375,9.705587387084961,0.4956133961677551,-0.3640081584453583
1729696532544305000,3.705304931640625,9.707980155944824,0.5195416212081909,-0.4046861231327057
1729696532554073000,3.715072998046875,9.684052467346191,0.4788636267185211,-0.41904306411743164
1729696532563841300,3.72484130859375,9.679266929626465,0.47647079825401306,-0.38315072655677795
1729696532573609200,3.734609130859375,9.681659698486328,0.48843491077423096,-0.3807578980922699
1729696532583377400,3.74437744140625,9.672088623046875,0.5099703073501587,-0.40707895159721375
1729696532593145600,3.7541455078125,9.681659698486328,0.48843491077423096,-0.40707895159721375
1729696532602913500,3.76391357421875,9.686445236206055,0.5051847100257874,-0.37597227096557617
1729696532612681700,3.773681640625,9.681659698486328,0.5075774788856506,-0.39511483907699585
1729696532622450000,3.783449951171875,9.707980155944824,0.5051847100257874,-0.3975076675415039
1729696532632218000,3.793218017578125,9.679266929626465,0.48843491077423096,-0.3807578980922699
1729696532641986000,3.802986083984375,9.688838005065918,0.47647079825401306,-0.4046861231327057
1729696532651754200,3.812754150390625,9.669695854187012,0.5027918815612793,-0.4166502356529236
1729696532661522400,3.8225224609375,9.686445236206055,0.5027918815612793,-0.3927220106124878
1729696532671290600,3.83229052734375,9.688838005065918,0.5147559642791748,-0.39990049600601196
1729696532681058600,3.84205859375,9.691230773925781,0.5075774788856506,-0.3975076675415039
1729696532690826800,3.85182666015625,9.681659698486328,0.4788636267185211,-0.40229329466819763
1729696532700595000,3.861594970703125,9.686445236206055,0.4788636267185211,-0.41904306411743164
1729696532710363100,3.871363037109375,9.681659698486328,0.5003990530967712,-0.4094717800617218
1729696532720131000,3.881131103515625,9.700801849365234,0.4788636267185211,-0.40229329466819763
1729696532729899300,3.890899169921875,9.681659698486328,0.4980062246322632,-0.39032918214797974
1729696532739667500,3.90066748046875,9.705587387084961,0.5051847100257874,-0.40229329466819763
1729696532749435600,3.910435546875,9.719944953918457,0.490827739238739,-0.39511483907699585
1729696532759203600,3.92020361328125,9.696016311645508,0.4812564551830292,-0.39990049600601196
1729696532768971800,3.9299716796875,9.681659698486328,0.5171487927436829,-0.3975076675415039
1729696532778740000,3.939739990234375,9.688838005065918,0.5099703073501587,-0.4046861231327057
1729696532788508000,3.9495078125,9.707980155944824,0.4980062246322632,-0.4214358925819397
1729696532798276000,3.959276123046875,9.686445236206055,0.4956133961677551,-0.39032918214797974
1729696532808044300,3.969044189453125,9.693623542785645,0.5051847100257874,-0.368793785572052
1729696532817812500,3.9788125,9.696016311645508,0.5027918815612793,-0.40229329466819763
1729696532827580700,3.98858056640625,9.684052467346191,0.47647079825401306,-0.42382872104644775
1729696532837348600,3.9983486328125,9.681659698486328,0.4956133961677551,-0.3807578980922699
1729696532847116800,4.00811669921875,9.691230773925781,0.4980062246322632,-0.40229329466819763
1729696532856885000,4.017885009765625,9.707980155944824,0.5003990530967712,-0.40707895159721375
1729696532866653200,4.027653076171875,9.676874160766602,0.5003990530967712,-0.39511483907699585
1729696532876421000,4.037421142578125,9.681659698486328,0.5003990530967712,-0.39511483907699585
1729696532886189300,4.047189208984375,9.698409080505371,0.5147559642791748,-0.40229329466819763
1729696532895957500,4.05695751953125,9.688838005065918,0.49322056770324707,-0.4262215197086334
1729696532905725700,4.0667255859375,9.681659698486328,0.4980062246322632,-0.40707895159721375
1729696532915493600,4.07649365234375,9.684052467346191,0.5003990530967712,-0.40707895159721375
1729696532925261800,4.08626171875,9.691230773925781,0.49322056770324707,-0.3975076675415039
1729696532935030000,4.096030029296875,9.688838005065918,0.5003990530967712,-0.4094717800617218
1729696532944798200,4.105798095703125,9.703194618225098,0.5027918815612793,-0.4046861231327057
1729696532954566100,4.115566162109375,9.669695854187012,0.490827739238739,-0.4046861231327057
1729696532964334300,4.125334228515625,9.688838005065918,0.4956133961677551,-0.38793638348579407
1729696532974102500,4.1351025390625,9.688838005065918,0.5051847100257874,-0.41186460852622986
1729696532983870700,4.14487060546875,9.688838005065918,0.48843491077423096,-0.39032918214797974
1729696532993638700,4.154638671875,9.672088623046875,0.5027918815612793,-0.3616153299808502
1729696533003406800,4.16440673828125,9.681659698486328,0.5171487927436829,-0.4046861231327057
1729696533013175000,4.174175048828125,9.684052467346191,0.49322056770324707,-0.39511483907699585
1729696533022943200,4.183943115234375,9.691230773925781,0.48843491077423096,-0.4094717800617218
1729696533032711400,4.19371142578125,9.691230773925781,0.5027918815612793,-0.40707895159721375
1729696533042479400,4.203479248046875,9.693623542785645,0.5147559642791748,-0.37836506962776184
1729696533052247600,4.21324755859375,9.679266929626465,0.5003990530967712,-0.39032918214797974
1729696533062015700,4.223015625,9.688838005065918,0.5123631358146667,-0.39990049600601196
1729696533071784000,4.232783935546875,9.681659698486328,0.46450668573379517,-0.3927220106124878
1729696533081552000,4.2425517578125,9.710372924804688,0.4956133961677551,-0.385543555021286
1729696533091320000,4.252320068359375,9.688838005065918,0.521934449672699,-0.4166502356529236
1729696533101088300,4.262088134765625,9.691230773925781,0.5147559642791748,-0.3927220106124878
1729696533110856400,4.2718564453125,9.686445236206055,0.4692923426628113,-0.4046861231327057
1729696533120624400,4.281624267578125,9.693623542785645,0.4740779995918274,-0.37597227096557617
1729696533130392600,4.291392578125,9.686445236206055,0.5003990530967712,-0.37118661403656006
1729696533140160800,4.301160888671875,9.698409080505371,0.4980062246322632,-0.39511483907699585
1729696533149929000,4.310928955078125,9.672088623046875,0.49322056770324707,-0.41186460852622986
1729696533159697000,4.32069677734375,9.679266929626465,0.4956133961677551,-0.3975076675415039
1729696533169465000,4.330465087890625,9.686445236206055,0.524327278137207,-0.39990049600601196
1729696533179233300,4.3402333984375,9.698409080505371,0.47647079825401306,-0.38793638348579407
1729696533189001500,4.35000146484375,9.696016311645508,0.4980062246322632,-0.3927220106124878
1729696533198769700,4.359769775390625,9.693623542785645,0.4692923426628113,-0.39990049600601196
1729696533208537600,4.36953759765625,9.696016311645508,0.4980062246322632,-0.43100717663764954
1729696533218305800,4.379305908203125,9.679266929626465,0.5003990530967712,-0.40707895159721375
1729696533228074000,4.389073974609375,9.686445236206055,0.5099703073501587,-0.38793638348579407
1729696533237842200,4.39884228515625,9.686445236206055,0.4788636267185211,-0.385543555021286
1729696533247610000,4.408610107421875,9.703194618225098,0.47647079825401306,-0.385543555021286
1729696533257378300,4.41837841796875,9.679266929626465,0.48843491077423096,-0.39511483907699585
1729696533267146500,4.428146484375,9.710372924804688,0.4980062246322632,-0.39990049600601196
1729696533276914700,4.437914794921875,9.681659698486328,0.5075774788856506,-0.3927220106124878
1729696533286683000,4.447682861328125,9.684052467346191,0.5075774788856506,-0.4046861231327057
1729696533296450800,4.457450927734375,9.698409080505371,0.49322056770324707,-0.39032918214797974
1729696533306219000,4.467218994140625,9.688838005065918,0.4980062246322632,-0.39511483907699585
1729696533315987200,4.4769873046875,9.684052467346191,0.4788636267185211,-0.38315072655677795
1729696533325755400,4.48675537109375,9.691230773925781,0.4788636267185211,-0.37118661403656006
1729696533335523300,4.4965234375,9.693623542785645,0.4980062246322632,-0.39511483907699585
1729696533345291500,4.50629150390625,9.691230773925781,0.47647079825401306,-0.37597227096557617
1729696533355059700,4.516059814453125,9.698409080505371,0.5147559642791748,-0.40229329466819763
1729696533364828000,4.525827880859375,9.688838005065918,0.49322056770324707,-0.3927220106124878
1729696533374595800,4.535595947265625,9.686445236206055,0.4980062246322632,-0.42382872104644775
1729696533384364000,4.545364013671875,9.693623542785645,0.4788636267185211,-0.39511483907699585
1729696533394132200,4.55513232421875,9.691230773925781,0.47168517112731934,-0.40707895159721375
1729696533403900400,4.564900390625,9.686445236206055,0.5123631358146667,-0.39990049600601196
1729696533413668600,4.574668701171875,9.686445236206055,0.48843491077423096,-0.4142574071884155
1729696533423436800,4.584436767578125,9.691230773925781,0.5003990530967712,-0.39511483907699585
1729696533433204700,4.594204833984375,9.679266929626465,0.48843491077423096,-0.40707895159721375
1729696533442973000,4.603972900390625,9.674481391906738,0.5075774788856506,-0.4166502356529236
1729696533452741000,4.6137412109375,9.679266929626465,0.490827739238739,-0.4142574071884155
1729696533462509300,4.62350927734375,9.679266929626465,0.4860421121120453,-0.39990049600601196
1729696533472277200,4.63327734375,9.688838005065918,0.5099703073501587,-0.4142574071884155
1729696533482045400,4.64304541015625,9.681659698486328,0.5027918815612793,-0.3807578980922699
1729696533491813600,4.652813720703125,9.696016311645508,0.4956133961677551,-0.3807578980922699
1729696533501581800,4.662581787109375,9.693623542785645,0.4860421121120453,-0.39990049600601196
1729696533511350000,4.67235009765625,9.691230773925781,0.48843491077423096,-0.385543555021286
1729696533521118000,4.682117919921875,9.681659698486328,0.5099703073501587,-0.4286143481731415
1729696533530886100,4.69188623046875,9.703194618225098,0.4956133961677551,-0.37836506962776184
1729696533540654300,4.701654296875,9.696016311645508,0.5267201066017151,-0.39990049600601196
1729696533550422500,4.711422607421875,9.693623542785645,0.47647079825401306,-0.3807578980922699
1729696533560190500,4.7211904296875,9.688838005065918,0.5075774788856506,-0.39032918214797974
1729696533569958700,4.730958740234375,9.674481391906738,0.5147559642791748,-0.4334000051021576
1729696533579726800,4.740726806640625,9.674481391906738,0.46450668573379517,-0.35922250151634216
1729696533589495000,4.7504951171875,9.693623542785645,0.5386841893196106,-0.43579283356666565
1729696533599263200,4.76026318359375,9.698409080505371,0.4549354016780853,-0.385543555021286
1729696533609031200,4.77003125,9.679266929626465,0.5195416212081909,-0.40707895159721375
1729696533618799400,4.77979931640625,9.688838005065918,0.49322056770324707,-0.4166502356529236
1729696533628567600,4.789567626953125,9.705587387084961,0.5267201066017151,-0.37118661403656006
1729696533638335700,4.799335693359375,9.698409080505371,0.524327278137207,-0.40707895159721375
1729696533648104000,4.80910400390625,9.676874160766602,0.48843491077423096,-0.4142574071884155
1729696533657872000,4.818871826171875,9.681659698486328,0.4621138870716095,-0.42382872104644775
1729696533667640000,4.82864013671875,9.693623542785645,0.4740779995918274,-0.3975076675415039
1729696533677408300,4.838408203125,9.681659698486328,0.5123631358146667,-0.3735794425010681
1729696533687176400,4.848176513671875,9.688838005065918,0.4668995141983032,-0.38793638348579407
1729696533696944600,4.857944580078125,9.681659698486328,0.5195416212081909,-0.40707895159721375
1729696533706712600,4.867712646484375,9.674481391906738,0.4788636267185211,-0.40707895159721375
1729696533716480800,4.877480712890625,9.693623542785645,0.4668995141983032,-0.40229329466819763
1729696533726249000,4.8872490234375,9.681659698486328,0.5171487927436829,-0.4046861231327057
1729696533736017200,4.89701708984375,9.684052467346191,0.4740779995918274,-0.3975076675415039
1729696533745785300,4.906785400390625,9.698409080505371,0.4860421121120453,-0.35922250151634216
1729696533755553300,4.91655322265625,9.681659698486328,0.521934449672699,-0.4046861231327057
1729696533765321500,4.926321533203125,9.691230773925781,0.4788636267185211,-0.3616153299808502
1729696533775089700,4.936089599609375,9.676874160766602,0.4740779995918274,-0.39990049600601196
1729696533784857900,4.94585791015625,9.676874160766602,0.5147559642791748,-0.3975076675415039
1729696533794626000,4.9556259765625,9.684052467346191,0.5099703073501587,-0.39032918214797974
1729696533804394000,4.96539404296875,9.681659698486328,0.4788636267185211,-0.385543555021286
1729696533814162200,4.975162109375,9.693623542785645,0.5051847100257874,-0.39032918214797974
1729696533823930400,4.984930419921875,9.681659698486328,0.4860421121120453,-0.37597227096557617
1729696533833698600,4.994698486328125,9.686445236206055,0.4812564551830292,-0.3927220106124878
1729696533843466800,5.004466796875,9.681659698486328,0.5099703073501587,-0.4166502356529236
1729696533853234700,5.014234619140625,9.674481391906738,0.5075774788856506,-0.385543555021286
1729696533863003000,5.0240029296875,9.698409080505371,0.4860421121120453,-0.39032918214797974
1729696533872771000,5.03377099609375,9.686445236206055,0.46450668573379517,-0.41186460852622986
1729696533882539300,5.043539306640625,9.684052467346191,0.4956133961677551,-0.3807578980922699
1729696533892307500,5.053307373046875,9.662516593933105,0.5027918815612793,-0.36640095710754395
1729696533902075400,5.063075439453125,9.681659698486328,0.47647079825401306,-0.4262215197086334
1729696533911843600,5.072843505859375,9.688838005065918,0.4980062246322632,-0.4262215197086334
1729696533921611800,5.08261181640625,9.696016311645508,0.490827739238739,-0.3975076675415039
1729696533931380000,5.0923798828125,9.686445236206055,0.49322056770324707,-0.3927220106124878
1729696533941148200,5.102148193359375,9.674481391906738,0.47647079825401306,-0.3927220106124878
1729696533950916000,5.111916015625,9.696016311645508,0.5315057039260864,-0.38793638348579407
1729696533960684300,5.121684326171875,9.686445236206055,0.49322056770324707,-0.4262215197086334
1729696533970452500,5.131452392578125,9.688838005065918,0.4860421121120453,-0.368793785572052
1729696533980220700,5.141220703125,9.688838005065918,0.5051847100257874,-0.39990049600601196
1729696533989988900,5.15098876953125,9.705587387084961,0.5051847100257874,-0.3927220106124878
1729696533999757000,5.160757080078125,9.679266929626465,0.490827739238739,-0.3975076675415039
1729696534009525000,5.17052490234375,9.686445236206055,0.490827739238739,-0.40229329466819763
1729696534019293200,5.180293212890625,9.688838005065918,0.524327278137207,-0.4046861231327057
1729696534029061400,5.190061279296875,9.705587387084961,0.490827739238739,-0.4286143481731415
1729696534038829600,5.19982958984375,9.684052467346191,0.5051847100257874,-0.39032918214797974
1729696534048597800,5.20959765625,9.672088623046875,0.49322056770324707,-0.4214358925819397
1729696534058365700,5.21936572265625,9.679266929626465,0.490827739238739,-0.41186460852622986
1729696534068134000,5.2291337890625,9.693623542785645,0.49322056770324707,-0.41186460852622986
1729696534077902000,5.238902099609375,9.676874160766602,0.5075774788856506,-0.4094717800617218
1729696534087670300,5.248670166015625,9.674481391906738,0.48364928364753723,-0.38315072655677795
1729696534097438500,5.2584384765625,9.686445236206055,0.49322056770324707,-0.3807578980922699
1729696534107206400,5.268206298828125,9.679266929626465,0.48364928364753723,-0.3927220106124878
1729696534116974600,5.277974609375,9.691230773925781,0.47647079825401306,-0.40229329466819763
1729696534126742800,5.28774267578125,9.700801849365234,0.4621138870716095,-0.39511483907699585
1729696534136511000,5.297510986328125,9.684052467346191,0.5075774788856506,-0.4214358925819397
1729696534146279200,5.307279052734375,9.696016311645508,0.521934449672699,-0.4142574071884155
1729696534156047400,5.31704736328125,9.676874160766602,0.48364928364753723,-0.38315072655677795
1729696534165815600,5.326815673828125,9.688838005065918,0.4788636267185211,-0.4142574071884155
1729696534175583500,5.33658349609375,9.679266929626465,0.5027918815612793,-0.42382872104644775
1729696534185351700,5.3463515625,9.676874160766602,0.48843491077423096,-0.43100717663764954
1729696534195119900,5.356119873046875,9.679266929626465,0.4740779995918274,-0.3975076675415039
1729696534204888000,5.36588818359375,9.681659698486328,0.490827739238739,-0.3975076675415039
1729696534214656300,5.37565625,9.693623542785645,0.5195416212081909,-0.42382872104644775
1729696534224424200,5.385424072265625,9.691230773925781,0.4980062246322632,-0.39990049600601196
1729696534234192400,5.3951923828125,9.688838005065918,0.4788636267185211,-0.3807578980922699
1729696534243960600,5.404960693359375,9.691230773925781,0.5291129350662231,-0.38793638348579407
1729696534253728800,5.414728759765625,9.684052467346191,0.5027918815612793,-0.42382872104644775
1729696534263497000,5.4244970703125,9.676874160766602,0.5171487927436829,-0.39032918214797974
1729696534273265000,5.434264892578125,9.686445236206055,0.5147559642791748,-0.39511483907699585
1729696534283033000,5.444033203125,9.679266929626465,0.5123631358146667,-0.43579283356666565
1729696534292801300,5.45380126953125,9.691230773925781,0.5171487927436829,-0.40707895159721375
1729696534302569500,5.463569580078125,9.681659698486328,0.5075774788856506,-0.3735794425010681
1729696534312337700,5.473337646484375,9.667302131652832,0.5051847100257874,-0.39511483907699585
1729696534322105900,5.48310595703125,9.688838005065918,0.5051847100257874,-0.4214358925819397
1729696534331873800,5.492873779296875,9.705587387084961,0.5099703073501587,-0.37836506962776184
1729696534341642000,5.50264208984375,9.696016311645508,0.48843491077423096,-0.3807578980922699
1729696534351410200,5.51241015625,9.679266929626465,0.524327278137207,-0.4262215197086334
1729696534361178400,5.522178466796875,9.686445236206055,0.5171487927436829,-0.39511483907699585
1729696534370946600,5.531946533203125,9.669695854187012,0.47168517112731934,-0.4381856322288513
1729696534380714800,5.54171484375,9.691230773925781,0.4812564551830292,-0.39990049600601196
1729696534390482700,5.551482666015625,9.698409080505371,0.490827739238739,-0.4621138870716095
1729696534400251000,5.5612509765625,9.681659698486328,0.4668995141983032,-0.368793785572052
1729696534410019000,5.57101904296875,9.691230773925781,0.4740779995918274,-0.3735794425010681
1729696534419787300,5.580787353515625,9.686445236206055,0.5123631358146667,-0.4286143481731415
1729696534429555500,5.590555419921875,9.703194618225098,0.49322056770324707,-0.37836506962776184
1729696534439323600,5.60032373046875,9.684052467346191,0.4668995141983032,-0.37597227096557617
1729696534449091600,5.610091552734375,9.688838005065918,0.5338985323905945,-0.4214358925819397
1729696534458859800,5.61985986328125,9.703194618225098,0.5099703073501587,-0.4334000051021576
1729696534468628000,5.6296279296875,9.703194618225098,0.5386841893196106,-0.4166502356529236
1729696534478396200,5.639396240234375,9.688838005065918,0.45972105860710144,-0.3927220106124878
1729696534488164400,5.649164306640625,9.676874160766602,0.5123631358146667,-0.4286143481731415
1729696534497932300,5.658932373046875,9.676874160766602,0.521934449672699,-0.4142574071884155
1729696534507700500,5.668700439453125,9.676874160766602,0.4860421121120453,-0.3975076675415039
1729696534517468700,5.67846875,9.672088623046875,0.4980062246322632,-0.39032918214797974
1729696534527236900,5.68823681640625,9.688838005065918,0.4956133961677551,-0.3975076675415039
1729696534537005000,5.698005126953125,9.688838005065918,0.46450668573379517,-0.4142574071884155
1729696534546773200,5.707773193359375,9.672088623046875,0.47647079825401306,-0.39511483907699585
1729696534556541400,5.71754150390625,9.676874160766602,0.5291129350662231,-0.4214358925819397
1729696534566309400,5.727309326171875,9.688838005065918,0.5386841893196106,-0.41186460852622986
1729696534576077600,5.73707763671875,9.681659698486328,0.5171487927436829,-0.3807578980922699
1729696534585845800,5.746845703125,9.681659698486328,0.49322056770324707,-0.3568296730518341
1729696534595614000,5.756614013671875,9.686445236206055,0.490827739238739,-0.39511483907699585
1729696534605382100,5.766382080078125,9.679266929626465,0.490827739238739,-0.38315072655677795
1729696534615150300,5.776150390625,9.691230773925781,0.49322056770324707,-0.4046861231327057
1729696534624918300,5.785918212890625,9.681659698486328,0.5099703073501587,-0.4046861231327057
1729696534634686500,5.7956865234375,9.693623542785645,0.5099703073501587,-0.3735794425010681
1729696534644454700,5.80545458984375,9.698409080505371,0.5147559642791748,-0.37597227096557617
1729696534654222800,5.815222900390625,9.679266929626465,0.490827739238739,-0.385543555021286
1729696534663991000,5.824990966796875,9.681659698486328,0.48843491077423096,-0.41186460852622986
1729696534673759200,5.83475927734375,9.684052467346191,0.4980062246322632,-0.4094717800617218
1729696534683527400,5.84452734375,9.698409080505371,0.5051847100257874,-0.40229329466819763
1729696534693295400,5.85429541015625,9.688838005065918,0.48843491077423096,-0.3975076675415039
1729696534703063600,5.8640634765625,9.693623542785645,0.5338985323905945,-0.3640081584453583
1729696534712831700,5.873831787109375,9.691230773925781,0.48364928364753723,-0.42382872104644775
1729696534722600000,5.883599853515625,9.672088623046875,0.46450668573379517,-0.3807578980922699
1729696534732368100,5.8933681640625,9.686445236206055,0.5027918815612793,-0.4094717800617218
1729696534742136300,5.90313623046875,9.705587387084961,0.4980062246322632,-0.4573282301425934
1729696534751904500,5.912904541015625,9.669695854187012,0.47168517112731934,-0.4046861231327057
1729696534761672400,5.92267236328125,9.676874160766602,0.4788636267185211,-0.37836506962776184
1729696534771440600,5.932440673828125,9.686445236206055,0.5027918815612793,-0.37597227096557617
1729696534781208800,5.942208740234375,9.691230773925781,0.5051847100257874,-0.3735794425010681
1729696534790977000,5.95197705078125,9.676874160766602,0.47647079825401306,-0.385543555021286
1729696534800745200,5.9617451171875,9.679266929626465,0.5338985323905945,-0.4262215197086334
1729696534810513400,5.971513427734375,9.696016311645508,0.4788636267185211,-0.40229329466819763
1729696534820281300,5.98128125,9.700801849365234,0.5051847100257874,-0.3807578980922699
1729696534830049500,5.991049560546875,9.696016311645508,0.4860421121120453,-0.37118661403656006
1729696534839817700,6.000817626953125,9.703194618225098,0.5051847100257874,-0.38793638348579407
1729696534849586000,6.0105859375,9.693623542785645,0.5123631358146667,-0.39511483907699585
1729696534859354000,6.02035400390625,9.688838005065918,0.5147559642791748,-0.4262215197086334
1729696534869122300,6.030122314453125,9.679266929626465,0.521934449672699,-0.4142574071884155
1729696534878890500,6.039890380859375,9.684052467346191,0.5003990530967712,-0.37836506962776184
1729696534888658400,6.049658447265625,9.676874160766602,0.521934449672699,-0.38793638348579407
1729696534898426600,6.059426513671875,9.691230773925781,0.524327278137207,-0.37597227096557617
1729696534908194800,6.06919482421875,9.696016311645508,0.5027918815612793,-0.39032918214797974
1729696534917963000,6.078962890625,9.681659698486328,0.490827739238739,-0.4094717800617218
1729696534927731200,6.088731201171875,9.672088623046875,0.524327278137207,-0.4046861231327057
1729696534937499400,6.09849951171875,9.688838005065918,0.4860421121120453,-0.39511483907699585
1729696534947267600,6.108267578125,9.700801849365234,0.490827739238739,-0.4166502356529236
1729696534957035500,6.118035400390625,9.669695854187012,0.45972105860710144,-0.41186460852622986
1729696534966803700,6.1278037109375,9.693623542785645,0.5051847100257874,-0.385543555021286
1729696534976572000,6.137572021484375,9.698409080505371,0.521934449672699,-0.4214358925819397
1729696534986340000,6.147340087890625,9.686445236206055,0.47168517112731934,-0.368793785572052
1729696534996108300,6.1571083984375,9.674481391906738,0.5195416212081909,-0.37597227096557617
1729696535005876500,6.16687646484375,9.727123260498047,0.5075774788856506,-0.41186460852622986
1729696535015644400,6.17664453125,9.681659698486328,0.5003990530967712,-0.385543555021286
1729696535025412600,6.18641259765625,9.676874160766602,0.42382872104644775,-0.43100717663764954
1729696535035180800,6.196180908203125,9.688838005065918,0.5051847100257874,-0.385543555021286
1729696535044949000,6.205948974609375,9.696016311645508,0.4668995141983032,-0.4286143481731415
1729696535054717200,6.21571728515625,9.693623542785645,0.5075774788856506,-0.385543555021286
1729696535064485400,6.2254853515625,9.674481391906738,0.4692923426628113,-0.3927220106124878
1729696535074253600,6.235253662109375,9.693623542785645,0.5171487927436829,-0.37836506962776184
1729696535084021500,6.245021484375,9.686445236206055,0.521934449672699,-0.38793638348579407
1729696535093789700,6.254789794921875,9.674481391906738,0.5099703073501587,-0.39032918214797974
1729696535103558000,6.264557861328125,9.676874160766602,0.41186460852622986,-0.35922250151634216
1729696535113326000,6.274326171875,9.684052467346191,0.5362913608551025,-0.3807578980922699
1729696535123094300,6.28409423828125,9.688838005065918,0.4980062246322632,-0.4405784606933594
1729696535132862500,6.293862548828125,9.691230773925781,0.4668995141983032,-0.4166502356529236
1729696535142630700,6.303630615234375,9.669695854187012,0.47168517112731934,-0.38793638348579407
1729696535152398800,6.31339892578125,9.705587387084961,0.5075774788856506,-0.38315072655677795
1729696535162166800,6.323166748046875,9.688838005065918,0.49322056770324707,-0.4262215197086334
1729696535171935000,6.33293505859375,9.698409080505371,0.5027918815612793,-0.3735794425010681
1729696535181703200,6.342703125,9.679266929626465,0.45254257321357727,-0.37118661403656006
1729696535191471400,6.352471435546875,9.707980155944824,0.5171487927436829,-0.41904306411743164
1729696535201239600,6.362239501953125,9.674481391906738,0.5267201066017151,-0.4166502356529236
1729696535211007700,6.3720078125,9.686445236206055,0.4812564551830292,-0.37597227096557617
1729696535220776000,6.38177587890625,9.667302131652832,0.4788636267185211,-0.38315072655677795
1729696535230544100,6.391544189453125,9.684052467346191,0.5147559642791748,-0.39032918214797974
1729696535240312000,6.40131201171875,9.691230773925781,0.4956133961677551,-0.41186460852622986
1729696535250080300,6.411080322265625,9.688838005065918,0.47647079825401306,-0.38793638348579407
1729696535259848400,6.420848388671875,9.674481391906738,0.4860421121120453,-0.40229329466819763
1729696535269616600,6.43061669921875,9.700801849365234,0.5051847100257874,-0.39032918214797974
1729696535279384800,6.440384765625,9.681659698486328,0.5338985323905945,-0.37118661403656006
1729696535289153000,6.450153076171875,9.681659698486328,0.490827739238739,-0.385543555021286
1729696535298921200,6.459921142578125,9.667302131652832,0.4621138870716095,-0.36640095710754395
1729696535308689400,6.469689453125,9.696016311645508,0.5051847100257874,-0.40707895159721375
1729696535318457300,6.479457275390625,9.688838005065918,0.5075774788856506,-0.41904306411743164
1729696535328225500,6.4892255859375,9.679266929626465,0.4788636267185211,-0.3616153299808502
1729696535337993700,6.49899365234375,9.679266929626465,0.49322056770324707,-0.3735794425010681
1729696535347762000,6.508761962890625,9.691230773925781,0.4980062246322632,-0.3927220106124878
1729696535357530000,6.518530029296875,9.688838005065918,0.5338985323905945,-0.4286143481731415
1729696535367298300,6.52829833984375,9.684052467346191,0.5195416212081909,-0.4046861231327057
1729696535377066500,6.53806640625,9.688838005065918,0.4740779995918274,-0.43100717663764954
1729696535386834400,6.54783447265625,9.700801849365234,0.4788636267185211,-0.4692923426628113
1729696535396602600,6.5576025390625,9.712766647338867,0.5123631358146667,-0.4381856322288513
1729696535406370800,6.567370849609375,9.681659698486328,0.5123631358146667,-0.37597227096557617
1729696535416139000,6.577138916015625,9.688838005065918,0.5099703073501587,-0.37836506962776184
1729696535425907200,6.5869072265625,9.686445236206055,0.5506483316421509,-0.3735794425010681
1729696535435675400,6.59667529296875,9.688838005065918,0.521934449672699,-0.37118661403656006
1729696535445443600,6.606443603515625,9.676874160766602,0.521934449672699,-0.4381856322288513
1729696535455211800,6.616211669921875,9.688838005065918,0.46450668573379517,-0.4453641176223755
1729696535464980000,6.62597998046875,9.674481391906738,0.4740779995918274,-0.4046861231327057
1729696535474748000,6.635747802734375,9.698409080505371,0.5410770177841187,-0.34247273206710815
1729696535484516000,6.64551611328125,9.691230773925781,0.5195416212081909,-0.3616153299808502
1729696535494284300,6.6552841796875,9.698409080505371,0.5027918815612793,-0.3735794425010681
1729696535504052500,6.665052490234375,9.679266929626465,0.4740779995918274,-0.4046861231327057
1729696535513820700,6.674820556640625,9.679266929626465,0.48364928364753723,-0.43100717663764954
1729696535523588900,6.6845888671875,9.681659698486328,0.5147559642791748,-0.4166502356529236
1729696535533357000,6.694357177734375,9.686445236206055,0.48364928364753723,-0.3520440459251404
1729696535543125200,6.704125244140625,9.700801849365234,0.43579283356666565,-0.33768710494041443
1729696535552893200,6.71389306640625,9.705587387084961,0.5075774788856506,-0.4142574071884155
1729696535562661400,6.723661376953125,9.693623542785645,0.5171487927436829,-0.40229329466819763
1729696535572429600,6.7334296875,9.691230773925781,0.49322056770324707,-0.4381856322288513
1729696535582197800,6.74319775390625,9.660123825073242,0.48843491077423096,-0.4286143481731415
1729696535591966000,6.752966064453125,9.693623542785645,0.4980062246322632,-0.4286143481731415
1729696535601734100,6.762734130859375,9.710372924804688,0.4980062246322632,-0.368793785572052
1729696535611502300,6.77250244140625,9.686445236206055,0.5003990530967712,-0.38793638348579407
1729696535621270500,6.7822705078125,9.655338287353516,0.47168517112731934,-0.38793638348579407
1729696535631038700,6.792038818359375,9.691230773925781,0.5003990530967712,-0.4166502356529236
1729696535640806700,6.801806640625,9.679266929626465,0.5315057039260864,-0.368793785572052
1729696535650574800,6.811574951171875,9.686445236206055,0.49322056770324707,-0.3496512174606323
1729696535660343000,6.821343017578125,9.698409080505371,0.4812564551830292,-0.3640081584453583
1729696535670111200,6.831111328125,9.693623542785645,0.5267201066017151,-0.4142574071884155
1729696535679879400,6.84087939453125,9.703194618225098,0.4956133961677551,-0.40229329466819763
1729696535689647600,6.850647705078125,9.691230773925781,0.4501497745513916,-0.41904306411743164
1729696535699415800,6.860415771484375,9.669695854187012,0.49322056770324707,-0.44297128915786743
1729696535709184000,6.87018408203125,9.698409080505371,0.490827739238739,-0.4262215197086334
1729696535718952200,6.8799521484375,9.684052467346191,0.4860421121120453,-0.35922250151634216
1729696535728720100,6.88972021484375,9.684052467346191,0.4621138870716095,-0.37118661403656006
1729696535738488300,6.89948828125,9.681659698486328,0.5099703073501587,-0.39990049600601196
1729696535748256500,6.909256591796875,9.700801849365234,0.4956133961677551,-0.4334000051021576
1729696535758024700,6.919024658203125,9.676874160766602,0.5147559642791748,-0.4142574071884155
1729696535767793000,6.92879296875,9.684052467346191,0.4740779995918274,-0.3807578980922699
1729696535777561000,6.93856103515625,9.696016311645508,0.5458626747131348,-0.3520440459251404
1729696535787329300,6.948329345703125,9.684052467346191,0.5099703073501587,-0.37118661403656006
1729696535797097500,6.958097412109375,9.667302131652832,0.46450668573379517,-0.37597227096557617
1729696535806865400,6.967865478515625,9.693623542785645,0.4812564551830292,-0.39511483907699585
1729696535816633600,6.977633544921875,9.686445236206055,0.490827739238739,-0.44297128915786743
1729696535826401800,6.98740185546875,9.662516593933105,0.5195416212081909,-0.4166502356529236
1729696535836170000,6.997169921875,9.700801849365234,0.5027918815612793,-0.3496512174606323
1729696535845938200,7.006938232421875,9.676874160766602,0.5075774788856506,-0.34725838899612427
1729696535855706400,7.016706298828125,9.712766647338867,0.4980062246322632,-0.39032918214797974
1729696535865474600,7.026474609375,9.686445236206055,0.5458626747131348,-0.4262215197086334
1729696535875242800,7.03624267578125,9.679266929626465,0.521934449672699,-0.43100717663764954
1729696535885011000,7.046010986328125,9.672088623046875,0.47647079825401306,-0.4381856322288513
1729696535894779100,7.055779052734375,9.686445236206055,0.5410770177841187,-0.39511483907699585
1729696535904547000,7.065547119140625,9.72233772277832,0.5195416212081909,-0.37597227096557617
1729696535914315300,7.075315185546875,9.707980155944824,0.4668995141983032,-0.40229329466819763
1729696535924083500,7.08508349609375,9.686445236206055,0.44775694608688354,-0.43100717663764954
1729696535933851600,7.0948515625,9.696016311645508,0.46450668573379517,-0.44775694608688354
1729696535943619800,7.104619873046875,9.669695854187012,0.47647079825401306,-0.4046861231327057
1729696535953388000,7.114387939453125,9.684052467346191,0.4980062246322632,-0.3927220106124878
1729696535963156200,7.12415625,9.684052467346191,0.48843491077423096,-0.3927220106124878
1729696535972924400,7.13392431640625,9.684052467346191,0.4812564551830292,-0.3735794425010681
1729696535982692600,7.143692626953125,9.691230773925781,0.46450668573379517,-0.4286143481731415
1729696535992460800,7.153460693359375,9.667302131652832,0.4262215197086334,-0.3807578980922699
1729696536002229000,7.16322900390625,9.662516593933105,0.4812564551830292,-0.4142574071884155
1729696536011997000,7.172996826171875,9.667302131652832,0.5099703073501587,-0.36640095710754395
1729696536021765000,7.18276513671875,9.703194618225098,0.5051847100257874,-0.33768710494041443
1729696536031533300,7.192533203125,9.684052467346191,0.47647079825401306,-0.36640095710754395
1729696536041301500,7.202301513671875,9.696016311645508,0.49322056770324707,-0.40229329466819763
1729696536051069700,7.212069580078125,9.676874160766602,0.4740779995918274,-0.39990049600601196
1729696536060838000,7.221837890625,9.686445236206055,0.4692923426628113,-0.4214358925819397
1729696536070606000,7.231606201171875,9.688838005065918,0.48364928364753723,-0.38315072655677795
1729696536080374300,7.241374267578125,9.703194618225098,0.4956133961677551,-0.37118661403656006
1729696536090142500,7.251142578125,9.686445236206055,0.524327278137207,-0.385543555021286
1729696536099910700,7.26091064453125,9.686445236206055,0.4980062246322632,-0.3807578980922699
1729696536109678600,7.2706787109375,9.684052467346191,0.521934449672699,-0.4046861231327057
1729696536119446800,7.28044677734375,9.686445236206055,0.5362913608551025,-0.43579283356666565
1729696536129215000,7.290215087890625,9.681659698486328,0.5410770177841187,-0.3975076675415039
1729696536138983200,7.299983154296875,9.686445236206055,0.5267201066017151,-0.38793638348579407
1729696536148751400,7.30975146484375,9.676874160766602,0.5291129350662231,-0.37597227096557617
1729696536158519600,7.31951953125,9.688838005065918,0.5075774788856506,-0.38315072655677795
1729696536168287700,7.329287841796875,9.700801849365234,0.5171487927436829,-0.4166502356529236
1729696536178056000,7.339055908203125,9.686445236206055,0.490827739238739,-0.4334000051021576
1729696536187824000,7.34882421875,9.684052467346191,0.4668995141983032,-0.4046861231327057
1729696536197592300,7.35859228515625,9.688838005065918,0.4692923426628113,-0.3640081584453583
1729696536207360500,7.368360595703125,9.686445236206055,0.4788636267185211,-0.37836506962776184
1729696536217128400,7.37812841796875,9.696016311645508,0.5003990530967712,-0.39511483907699585
1729696536226896600,7.387896728515625,9.691230773925781,0.4668995141983032,-0.38315072655677795
1729696536236664800,7.397664794921875,9.681659698486328,0.4788636267185211,-0.4142574071884155
1729696536246433000,7.40743310546875,9.686445236206055,0.4980062246322632,-0.4166502356529236
1729696536256201200,7.417201171875,9.686445236206055,0.5123631358146667,-0.385543555021286
1729696536265969400,7.426969482421875,9.696016311645508,0.4812564551830292,-0.39032918214797974
1729696536275737600,7.436737548828125,9.684052467346191,0.49322056770324707,-0.3735794425010681
1729696536285505800,7.446505859375,9.696016311645508,0.5075774788856506,-0.38315072655677795
1729696536295274000,7.45627392578125,9.691230773925781,0.5147559642791748,-0.4142574071884155
1729696536305042200,7.466042236328125,9.672088623046875,0.47168517112731934,-0.41904306411743164
1729696536314810400,7.475810302734375,9.693623542785645,0.4740779995918274,-0.41186460852622986
1729696536324578600,7.48557861328125,9.686445236206055,0.49322056770324707,-0.4094717800617218
1729696536334346800,7.4953466796875,9.693623542785645,0.5075774788856506,-0.40229329466819763
1729696536344114700,7.50511474609375,9.679266929626465,0.5027918815612793,-0.41186460852622986
1729696536353883000,7.5148828125,9.676874160766602,0.5027918815612793,-0.4262215197086334
1729696536363651000,7.524651123046875,9.674481391906738,0.4860421121120453,-0.40229329466819763
1729696536373419300,7.534419189453125,9.688838005065918,0.5075774788856506,-0.38793638348579407
1729696536383187500,7.5441875,9.698409080505371,0.4956133961677551,-0.38315072655677795
1729696536392955600,7.55395556640625,9.688838005065918,0.5051847100257874,-0.39032918214797974
1729696536402723800,7.563723876953125,9.696016311645508,0.49322056770324707,-0.4214358925819397
1729696536412492000,7.573491943359375,9.684052467346191,0.524327278137207,-0.4262215197086334
1729696536422260200,7.58326025390625,9.674481391906738,0.4956133961677551,-0.4142574071884155
1729696536432028400,7.5930283203125,9.676874160766602,0.4788636267185211,-0.39990049600601196
1729696536441796600,7.602796630859375,9.686445236206055,0.5315057039260864,-0.37836506962776184
1729696536451564800,7.612564697265625,9.698409080505371,0.5051847100257874,-0.38315072655677795
1729696536461333000,7.6223330078125,9.684052467346191,0.43100717663764954,-0.3927220106124878
1729696536471101000,7.632100830078125,9.698409080505371,0.45254257321357727,-0.4214358925819397
1729696536480869000,7.641869140625,9.688838005065918,0.5099703073501587,-0.44775694608688354
1729696536490637300,7.65163720703125,9.679266929626465,0.49322056770324707,-0.40229329466819763
1729696536500405500,7.661405517578125,9.691230773925781,0.4668995141983032,-0.3640081584453583
1729696536510173700,7.671173583984375,9.710372924804688,0.5003990530967712,-0.39032918214797974
1729696536519942000,7.68094189453125,9.703194618225098,0.5171487927436829,-0.385543555021286
1729696536529710000,7.6907099609375,9.696016311645508,0.47647079825401306,-0.41904306411743164
1729696536539478300,7.700478271484375,9.686445236206055,0.490827739238739,-0.4166502356529236
1729696536549246500,7.71024658203125,9.691230773925781,0.49322056770324707,-0.4046861231327057
1729696536559014700,7.7200146484375,9.679266929626465,0.5530411601066589,-0.368793785572052
1729696536568782800,7.729782958984375,9.693623542785645,0.5338985323905945,-0.3616153299808502
1729696536578551000,7.739551025390625,9.686445236206055,0.5003990530967712,-0.39032918214797974
1729696536588319200,7.7493193359375,9.686445236206055,0.5075774788856506,-0.4166502356529236
1729696536598087200,7.759087158203125,9.688838005065918,0.5027918815612793,-0.41904306411743164
1729696536607855400,7.76885546875,9.686445236206055,0.4740779995918274,-0.39990049600601196
1729696536617623600,7.77862353515625,9.693623542785645,0.4812564551830292,-0.38793638348579407
1729696536627391700,7.788391845703125,9.679266929626465,0.5075774788856506,-0.40707895159721375
1729696536637160000,7.798159912109375,9.691230773925781,0.4692923426628113,-0.40229329466819763
1729696536646928100,7.80792822265625,9.696016311645508,0.4740779995918274,-0.41186460852622986
1729696536656696300,7.8176962890625,9.674481391906738,0.4980062246322632,-0.38315072655677795
1729696536666464500,7.827464599609375,9.696016311645508,0.4860421121120453,-0.4094717800617218
1729696536676232700,7.837232666015625,9.681659698486328,0.49322056770324707,-0.4046861231327057
1729696536686001000,7.8470009765625,9.681659698486328,0.5171487927436829,-0.38793638348579407
1729696536695769000,7.85676904296875,9.693623542785645,0.49322056770324707,-0.39511483907699585
1729696536705537300,7.866537353515625,9.693623542785645,0.490827739238739,-0.40707895159721375
1729696536715305500,7.876305419921875,9.691230773925781,0.4980062246322632,-0.42382872104644775
1729696536725073700,7.88607373046875,9.681659698486328,0.46450668573379517,-0.39511483907699585
1729696536734841900,7.895841796875,9.691230773925781,0.4860421121120453,-0.39032918214797974
1729696536744609800,7.90560986328125,9.691230773925781,0.5051847100257874,-0.40229329466819763
1729696536754378000,7.9153779296875,9.688838005065918,0.5075774788856506,-0.4142574071884155
1729696536764146200,7.925146240234375,9.679266929626465,0.47647079825401306,-0.40229329466819763
1729696536773914400,7.934914306640625,9.664909362792969,0.47168517112731934,-0.41904306411743164
1729696536783682600,7.9446826171875,9.698409080505371,0.48843491077423096,-0.39990049600601196
1729696536793450800,7.95445068359375,9.688838005065918,0.5171487927436829,-0.40707895159721375
1729696536803219000,7.964218994140625,9.684052467346191,0.4980062246322632,-0.368793785572052
1729696536812987100,7.973987060546875,9.705587387084961,0.5003990530967712,-0.37597227096557617
1729696536822755300,7.98375537109375,9.693623542785645,0.4860421121120453,-0.39032918214797974
1729696536832523500,7.9935234375,9.688838005065918,0.4956133961677551,-0.4166502356529236
1729696536842291700,8.003291748046875,9.681659698486328,0.4812564551830292,-0.4381856322288513
1729696536852060000,8.013059814453126,9.662516593933105,0.48843491077423096,-0.4094717800617218
1729696536861828000,8.022828125,9.674481391906738,0.4980062246322632,-0.38793638348579407
1729696536871596300,8.03259619140625,9.691230773925781,0.46450668573379517,-0.35443684458732605
1729696536881364500,8.042364501953125,9.712766647338867,0.4788636267185211,-0.39511483907699585
1729696536891132700,8.052132568359376,9.691230773925781,0.4860421121120453,-0.4142574071884155
1729696536900900900,8.06190087890625,9.679266929626465,0.45254257321357727,-0.4046861231327057
1729696536910668800,8.071668701171875,9.676874160766602,0.4860421121120453,-0.40707895159721375
1729696536920437000,8.08143701171875,9.691230773925781,0.5171487927436829,-0.4094717800617218
1729696536930205200,8.091205078125,9.674481391906738,0.48843491077423096,-0.368793785572052
1729696536939973400,8.100973388671875,9.684052467346191,0.4860421121120453,-0.37597227096557617
1729696536949741600,8.110741455078125,9.679266929626465,0.49322056770324707,-0.4094717800617218
1729696536959509800,8.120509765625,9.662516593933105,0.45972105860710144,-0.4286143481731415
1729696536969278000,8.13027783203125,9.686445236206055,0.4788636267185211,-0.4046861231327057
1729696536979046100,8.140046142578125,9.693623542785645,0.4956133961677551,-0.37118661403656006
1729696536988814300,8.149814453125,9.700801849365234,0.5075774788856506,-0.3520440459251404
1729696536998582500,8.15958251953125,9.686445236206055,0.5171487927436829,-0.37118661403656006
1729696537008350700,8.169350830078125,9.681659698486328,0.5003990530967712,-0.43100717663764954
1729696537018119000,8.179118896484376,9.669695854187012,0.48843491077423096,-0.44297128915786743
1729696537027887000,8.18888720703125,9.679266929626465,0.48843491077423096,-0.43100717663764954
1729696537037655300,8.1986552734375,9.691230773925781,0.5123631358146667,-0.39032918214797974
1729696537047423500,8.208423583984375,9.696016311645508,0.5099703073501587,-0.35443684458732605
1729696537057191700,8.218191650390626,9.684052467346191,0.5171487927436829,-0.37597227096557617
1729696537066960000,8.2279599609375,9.686445236206055,0.4980062246322632,-0.3927220106124878
1729696537076727800,8.237727783203125,9.667302131652832,0.4956133961677551,-0.41904306411743164
1729696537086496000,8.24749609375,9.691230773925781,0.5051847100257874,-0.385543555021286
1729696537096264200,8.25726416015625,9.712766647338867,0.47168517112731934,-0.39032918214797974
1729696537106032400,8.267032470703125,9.698409080505371,0.521934449672699,-0.37836506962776184
1729696537115800600,8.276800537109375,9.693623542785645,0.5195416212081909,-0.38793638348579407
1729696537125568800,8.28656884765625,9.679266929626465,0.5171487927436829,-0.4094717800617218
1729696537135337000,8.2963369140625,9.679266929626465,0.5003990530967712,-0.4094717800617218
1729696537145105200,8.306105224609375,9.679266929626465,0.4980062246322632,-0.4214358925819397
1729696537154873300,8.315873291015626,9.691230773925781,0.49322056770324707,-0.4166502356529236
1729696537164641500,8.3256416015625,9.679266929626465,0.5267201066017151,-0.4094717800617218
1729696537174409700,8.33540966796875,9.679266929626465,0.4812564551830292,-0.368793785572052
1729696537184178000,8.345177978515625,9.684052467346191,0.47168517112731934,-0.39511483907699585
1729696537193946000,8.354946044921874,9.681659698486328,0.5051847100257874,-0.4262215197086334
1729696537203714300,8.36471435546875,9.696016311645508,0.5003990530967712,-0.4166502356529236
1729696537213482500,8.374482421875,9.681659698486328,0.5051847100257874,-0.4094717800617218
1729696537223250700,8.384250732421876,9.667302131652832,0.4860421121120453,-0.3927220106124878
1729696537233019000,8.394018798828125,9.703194618225098,0.5003990530967712,-0.37836506962776184
1729696537242787000,8.403787109375,9.693623542785645,0.490827739238739,-0.3807578980922699
1729696537252555300,8.41355517578125,9.688838005065918,0.48364928364753723,-0.38315072655677795
1729696537262323500,8.423323486328124,9.688838005065918,0.48364928364753723,-0.3975076675415039
1729696537272091600,8.433091552734375,9.686445236206055,0.5099703073501587,-0.4214358925819397
1729696537281859600,8.442859619140625,9.667302131652832,0.5075774788856506,-0.39990049600601196
1729696537291627800,8.452627685546876,9.696016311645508,0.4980062246322632,-0.3807578980922699
1729696537301396000,8.46239599609375,9.688838005065918,0.4812564551830292,-0.37836506962776184
1729696537311164200,8.4721640625,9.700801849365234,0.5051847100257874,-0.40707895159721375
1729696537320932400,8.481932373046876,9.688838005065918,0.490827739238739,-0.4046861231327057
1729696537330700500,8.491700439453124,9.698409080505371,0.4740779995918274,-0.4046861231327057
1729696537340468700,8.50146875,9.688838005065918,0.48364928364753723,-0.41186460852622986
1729696537350237000,8.51123681640625,9.707980155944824,0.4788636267185211,-0.38315072655677795
1729696537360005000,8.521005126953124,9.681659698486328,0.48843491077423096,-0.38315072655677795
1729696537369773300,8.530773193359375,9.672088623046875,0.4692923426628113,-0.3807578980922699
1729696537379541500,8.54054150390625,9.672088623046875,0.5027918815612793,-0.39511483907699585
1729696537389309700,8.550309814453126,9.686445236206055,0.4980062246322632,-0.40707895159721375
1729696537399078000,8.560077880859374,9.707980155944824,0.5051847100257874,-0.39990049600601196
1729696537408846000,8.56984619140625,9.679266929626465,0.5027918815612793,-0.38315072655677795
1729696537418614300,8.5796142578125,9.698409080505371,0.4980062246322632,-0.38793638348579407
1729696537428382500,8.589382568359374,9.688838005065918,0.5075774788856506,-0.40229329466819763
1729696537438150700,8.599150634765625,9.667302131652832,0.5171487927436829,-0.4094717800617218
1729696537447918800,8.6089189453125,9.672088623046875,0.4860421121120453,-0.40229329466819763
1729696537457687000,8.61868701171875,9.679266929626465,0.47647079825401306,-0.39032918214797974
1729696537467455200,8.628455322265625,9.676874160766602,0.5027918815612793,-0.40229329466819763
1729696537477223400,8.638223388671875,9.686445236206055,0.5051847100257874,-0.3927220106124878
1729696537486991600,8.64799169921875,9.669695854187012,0.49322056770324707,-0.40229329466819763
1729696537496759800,8.657759765625,9.672088623046875,0.5027918815612793,-0.3927220106124878
1729696537506528000,8.667528076171875,9.693623542785645,0.521934449672699,-0.39511483907699585
1729696537516296200,8.677296142578125,9.696016311645508,0.48843491077423096,-0.3927220106124878
1729696537526064400,8.687064453125,9.693623542785645,0.46450668573379517,-0.37836506962776184
1729696537535832600,8.69683251953125,9.681659698486328,0.5051847100257874,-0.4214358925819397
1729696537545600500,8.7066005859375,9.686445236206055,0.490827739238739,-0.41186460852622986
1729696537555368700,8.71636865234375,9.696016311645508,0.4860421121120453,-0.38315072655677795
1729696537565137000,8.726136962890624,9.693623542785645,0.48843491077423096,-0.39511483907699585
1729696537574905000,8.735905029296875,9.688838005065918,0.48843491077423096,-0.40229329466819763
1729696537584673300,8.74567333984375,9.688838005065918,0.5027918815612793,-0.40707895159721375
1729696537594441500,8.75544140625,9.681659698486328,0.47168517112731934,-0.38315072655677795
1729696537604209700,8.765209716796875,9.676874160766602,0.490827739238739,-0.3927220106124878
1729696537613977900,8.774977783203125,9.686445236206055,0.5195416212081909,-0.385543555021286
1729696537623746000,8.78474609375,9.684052467346191,0.5075774788856506,-0.385543555021286
1729696537633514200,8.79451416015625,9.684052467346191,0.4788636267185211,-0.39990049600601196
1729696537643282400,8.804282470703125,9.679266929626465,0.5099703073501587,-0.4142574071884155
1729696537653050600,8.814050537109376,9.672088623046875,0.5051847100257874,-0.4142574071884155
1729696537662818800,8.82381884765625,9.691230773925781,0.5147559642791748,-0.3975076675415039
1729696537672587000,8.8335869140625,9.681659698486328,0.5027918815612793,-0.37836506962776184
1729696537682355200,8.843355224609375,9.705587387084961,0.4860421121120453,-0.38793638348579407
1729696537692123400,8.853123291015624,9.693623542785645,0.5147559642791748,-0.38793638348579407
1729696537701891600,8.8628916015625,9.693623542785645,0.5075774788856506,-0.4094717800617218
1729696537711659800,8.87265966796875,9.705587387084961,0.5051847100257874,-0.3807578980922699
1729696537721428000,8.882427978515626,9.693623542785645,0.48843491077423096,-0.3927220106124878
1729696537731196200,8.892196044921874,9.705587387084961,0.5003990530967712,-0.39990049600601196
1729696537740964400,8.90196435546875,9.652945518493652,0.4788636267185211,-0.41904306411743164
1729696537750732500,8.911732666015626,9.667302131652832,0.5003990530967712,-0.4405784606933594
1729696537760500700,8.921500732421874,9.681659698486328,0.4692923426628113,-0.39511483907699585
1729696537770269000,8.93126904296875,9.696016311645508,0.5075774788856506,-0.3807578980922699
1729696537780037000,8.941037109375,9.693623542785645,0.5027918815612793,-0.39990049600601196
1729696537789805300,8.950805419921876,9.669695854187012,0.5003990530967712,-0.39511483907699585
1729696537799573500,8.960573486328125,9.674481391906738,0.4812564551830292,-0.4142574071884155
1729696537809341700,8.970341796875,9.693623542785645,0.5051847100257874,-0.42382872104644775
1729696537819110000,8.98010986328125,9.705587387084961,0.4980062246322632,-0.4142574071884155
1729696537828878000,8.989878173828124,9.717552185058594,0.48364928364753723,-0.4142574071884155
1729696537838646300,8.999646240234375,9.669695854187012,0.4860421121120453,-0.38315072655677795
1729696537848414500,9.00941455078125,9.660123825073242,0.5051847100257874,-0.4046861231327057
1729696537858182700,9.0191826171875,9.662516593933105,0.4956133961677551,-0.38793638348579407
1729696537867950800,9.028950927734375,9.710372924804688,0.4740779995918274,-0.39511483907699585
1729696537877719000,9.038718994140625,9.700801849365234,0.4860421121120453,-0.3975076675415039
1729696537887487000,9.048487060546876,9.676874160766602,0.5099703073501587,-0.4166502356529236
1729696537897255400,9.05825537109375,9.662516593933105,0.5147559642791748,-0.41186460852622986
1729696537907023600,9.068023681640625,9.650552749633789,0.49322056770324707,-0.3640081584453583
1729696537916791600,9.07779150390625,9.691230773925781,0.5171487927436829,-0.3735794425010681
1729696537926559700,9.087559814453124,9.717552185058594,0.4980062246322632,-0.3975076675415039
1729696537936328000,9.097327880859375,9.696016311645508,0.5123631358146667,-0.39511483907699585
1729696537946096400,9.107096435546875,9.681659698486328,0.521934449672699,-0.4286143481731415
1729696537955864300,9.1168642578125,9.669695854187012,0.49322056770324707,-0.41904306411743164
1729696537965632500,9.126632568359375,9.693623542785645,0.4956133961677551,-0.38315072655677795
1729696537975400700,9.136400634765625,9.696016311645508,0.49322056770324707,-0.3807578980922699
1729696537985169000,9.1461689453125,9.684052467346191,0.490827739238739,-0.38793638348579407
1729696537994937000,9.15593701171875,9.667302131652832,0.48843491077423096,-0.38315072655677795
1729696538004705300,9.165705322265625,9.679266929626465,0.5027918815612793,-0.41904306411743164
1729696538014473500,9.175473388671875,9.676874160766602,0.4740779995918274,-0.40229329466819763
1729696538024241700,9.18524169921875,9.703194618225098,0.4812564551830292,-0.36640095710754395
1729696538034009900,9.195009765625,9.693623542785645,0.49322056770324707,-0.37836506962776184
1729696538043778000,9.204778076171875,9.688838005065918,0.5123631358146667,-0.3975076675415039
1729696538053546200,9.214546142578126,9.652945518493652,0.5051847100257874,-0.4214358925819397
1729696538063314400,9.224314453125,9.676874160766602,0.49322056770324707,-0.43579283356666565
1729696538073082600,9.23408251953125,9.681659698486328,0.5003990530967712,-0.4262215197086334
1729696538082850800,9.243850830078125,9.707980155944824,0.4860421121120453,-0.35922250151634216
1729696538092619000,9.253618896484374,9.698409080505371,0.490827739238739,-0.368793785572052
1729696538102387200,9.26338720703125,9.698409080505371,0.49322056770324707,-0.37118661403656006
1729696538112155400,9.2731552734375,9.691230773925781,0.5051847100257874,-0.4142574071884155
1729696538121923600,9.282923583984376,9.681659698486328,0.5003990530967712,-0.44775694608688354
1729696538131691800,9.29269189453125,9.669695854187012,0.49322056770324707,-0.40229329466819763
1729696538141460000,9.3024599609375,9.703194618225098,0.490827739238739,-0.36640095710754395
1729696538151228200,9.312228271484376,9.696016311645508,0.4860421121120453,-0.3496512174606323
1729696538160996400,9.321996337890624,9.664909362792969,0.4812564551830292,-0.3735794425010681
1729696538170764500,9.3317646484375,9.664909362792969,0.5123631358146667,-0.4286143481731415
1729696538180532700,9.34153271484375,9.679266929626465,0.5075774788856506,-0.4381856322288513
1729696538190301000,9.351301025390624,9.674481391906738,0.48843491077423096,-0.4046861231327057
1729696538200069000,9.361069091796875,9.686445236206055,0.5051847100257874,-0.37597227096557617
1729696538209837300,9.37083740234375,9.693623542785645,0.4956133961677551,-0.368793785572052
1729696538219605500,9.38060546875,9.688838005065918,0.49322056770324707,-0.3735794425010681
1729696538229373700,9.390373779296874,9.698409080505371,0.4788636267185211,-0.39990049600601196
1729696538239142000,9.400141845703125,9.688838005065918,0.48364928364753723,-0.43100717663764954
1729696538248910000,9.40991015625,9.681659698486328,0.48843491077423096,-0.4381856322288513
1729696538258678300,9.41967822265625,9.686445236206055,0.4860421121120453,-0.39511483907699585
1729696538268446500,9.429446533203125,9.688838005065918,0.490827739238739,-0.38793638348579407
1729696538278214700,9.439214599609375,9.679266929626465,0.5075774788856506,-0.3496512174606323
1729696538287982800,9.44898291015625,9.696016311645508,0.4812564551830292,-0.38793638348579407
1729696538297751000,9.4587509765625,9.688838005065918,0.4812564551830292,-0.4166502356529236
1729696538307519200,9.468519287109375,9.674481391906738,0.4860421121120453,-0.4142574071884155
1729696538317287400,9.478287353515626,9.688838005065918,0.4812564551830292,-0.40707895159721375
1729696538327055600,9.4880556640625,9.686445236206055,0.5099703073501587,-0.38793638348579407
1729696538336823800,9.49782373046875,9.703194618225098,0.5027918815612793,-0.37118661403656006
1729696538346592000,9.507592041015625,9.688838005065918,0.48364928364753723,-0.38793638348579407
1729696538356360200,9.517360107421876,9.688838005065918,0.5099703073501587,-0.4166502356529236
1729696538366128400,9.52712841796875,9.696016311645508,0.49322056770324707,-0.42382872104644775
1729696538375896600,9.536896484375,9.693623542785645,0.4956133961677551,-0.4214358925819397
1729696538385664800,9.546664794921876,9.686445236206055,0.47647079825401306,-0.37597227096557617
1729696538395433000,9.556432861328124,9.696016311645508,0.5147559642791748,-0.39032918214797974
1729696538405201200,9.566201171875,9.676874160766602,0.49322056770324707,-0.3927220106124878
1729696538414969300,9.57596923828125,9.686445236206055,0.5075774788856506,-0.41186460852622986
1729696538424737500,9.585737548828124,9.676874160766602,0.5147559642791748,-0.4166502356529236
1729696538434505700,9.595505615234375,9.693623542785645,0.5027918815612793,-0.4046861231327057
1729696538444274000,9.60527392578125,9.693623542785645,0.5051847100257874,-0.3807578980922699
1729696538454042000,9.6150419921875,9.693623542785645,0.4980062246322632,-0.38793638348579407
1729696538463810300,9.624810302734375,9.703194618225098,0.4956133961677551,-0.4046861231327057
1729696538473578500,9.63457861328125,9.688838005065918,0.4980062246322632,-0.40707895159721375
1729696538483346700,9.6443466796875,9.693623542785645,0.5123631358146667,-0.40229329466819763
1729696538493115000,9.654114990234374,9.679266929626465,0.47647079825401306,-0.43100717663764954
1729696538502883000,9.663883056640625,9.684052467346191,0.5003990530967712,-0.3975076675415039
1729696538512651300,9.6736513671875,9.684052467346191,0.5171487927436829,-0.3927220106124878
1729696538522419500,9.68341943359375,9.681659698486328,0.5027918815612793,-0.3975076675415039
1729696538532187600,9.693187744140625,9.696016311645508,0.490827739238739,-0.37118661403656006
1729696538541955800,9.702955810546875,9.696016311645508,0.4956133961677551,-0.40229329466819763
1729696538551724000,9.71272412109375,9.686445236206055,0.4956133961677551,-0.42382872104644775
1729696538561492200,9.7224921875,9.686445236206055,0.5386841893196106,-0.3975076675415039
1729696538571260400,9.732260498046875,9.686445236206055,0.5099703073501587,-0.39032918214797974
1729696538581028600,9.742028564453125,9.691230773925781,0.5003990530967712,-0.368793785572052
1729696538590796800,9.751796875,9.662516593933105,0.4860421121120453,-0.39990049600601196
1729696538600565000,9.76156494140625,9.698409080505371,0.48364928364753723,-0.4046861231327057
1729696538610333200,9.771333251953125,9.679266929626465,0.4956133961677551,-0.4166502356529236
1729696538620101400,9.781101318359376,9.686445236206055,0.49322056770324707,-0.4094717800617218
1729696538629869600,9.79086962890625,9.672088623046875,0.4788636267185211,-0.39032918214797974
1729696538639637800,9.8006376953125,9.691230773925781,0.47647079825401306,-0.385543555021286
1729696538649406000,9.810406005859376,9.686445236206055,0.521934449672699,-0.38793638348579407
1729696538659174100,9.820174072265624,9.684052467346191,0.4860421121120453,-0.39032918214797974
1729696538668942300,9.8299423828125,9.686445236206055,0.5003990530967712,-0.4046861231327057
1729696538678710500,9.83971044921875,9.696016311645508,0.48843491077423096,-0.4094717800617218
1729696538688478700,9.849478759765624,9.684052467346191,0.48843491077423096,-0.41186460852622986
1729696538698247000,9.859246826171875,9.684052467346191,0.5051847100257874,-0.37836506962776184
1729696538708015000,9.86901513671875,9.705587387084961,0.47168517112731934,-0.3735794425010681
1729696538717783300,9.878783203125,9.717552185058594,0.490827739238739,-0.3807578980922699
1729696538727551500,9.888551513671874,9.650552749633789,0.5003990530967712,-0.4046861231327057
1729696538737319700,9.898319580078125,9.669695854187012,0.4788636267185211,-0.4214358925819397
1729696538747088000,9.908087890625,9.676874160766602,0.5147559642791748,-0.39511483907699585
1729696538756856000,9.91785595703125,9.700801849365234,0.49322056770324707,-0.39511483907699585
1729696538766624500,9.92762451171875,9.712766647338867,0.49322056770324707,-0.3735794425010681
1729696538776392400,9.937392333984375,9.674481391906738,0.4549354016780853,-0.3927220106124878
1729696538786160600,9.94716064453125,9.672088623046875,0.5123631358146667,-0.4262215197086334
1729696538795929000,9.95692919921875,9.662516593933105,0.4860421121120453,-0.4046861231327057
1729696538805697000,9.966697021484375,9.707980155944824,0.48843491077423096,-0.40707895159721375
1729696538815465200,9.97646533203125,9.710372924804688,0.48843491077423096,-0.3807578980922699
1729696538825233700,9.986233642578124,9.696016311645508,0.5051847100257874,-0.39032918214797974
1729696538835001900,9.996001953125,9.657731056213379,0.5003990530967712,-0.3975076675415039
1729696538844769800,10.005769775390625,9.669695854187012,0.5075774788856506,-0.385543555021286
1729696538854538200,10.015538330078124,9.684052467346191,0.48843491077423096,-0.3975076675415039
1729696538864306400,10.025306396484375,9.700801849365234,0.5123631358146667,-0.39990049600601196
1729696538874074600,10.03507470703125,9.688838005065918,0.5099703073501587,-0.4046861231327057
1729696538883842800,10.0448427734375,9.688838005065918,0.5075774788856506,-0.3807578980922699
1729696538893611000,10.054611083984375,9.679266929626465,0.5147559642791748,-0.4142574071884155
1729696538903379200,10.064379150390625,9.676874160766602,0.490827739238739,-0.39511483907699585
1729696538913147400,10.0741474609375,9.676874160766602,0.5171487927436829,-0.4142574071884155
1729696538922915600,10.08391552734375,9.686445236206055,0.4812564551830292,-0.38793638348579407
1729696538932683800,10.093683837890625,9.693623542785645,0.5051847100257874,-0.3975076675415039
1729696538942452000,10.103451904296875,9.688838005065918,0.48843491077423096,-0.40229329466819763
1729696538952220200,10.11322021484375,9.688838005065918,0.490827739238739,-0.40229329466819763
1729696538961988400,10.12298828125,9.681659698486328,0.5003990530967712,-0.3975076675415039
1729696538971756500,10.132756591796875,9.691230773925781,0.5123631358146667,-0.3975076675415039
1729696538981524700,10.142524658203126,9.703194618225098,0.4956133961677551,-0.39511483907699585
1729696538991293000,10.15229296875,9.676874160766602,0.47647079825401306,-0.40229329466819763
1729696539001061000,10.16206103515625,9.681659698486328,0.521934449672699,-0.44297128915786743
1729696539010829300,10.171829345703125,9.693623542785645,0.4812564551830292,-0.4166502356529236
1729696539020597500,10.181597412109374,9.676874160766602,0.5195416212081909,-0.39032918214797974
1729696539030365700,10.19136572265625,9.686445236206055,0.4860421121120453,-0.3975076675415039
1729696539040134000,10.2011337890625,9.681659698486328,0.4812564551830292,-0.4046861231327057
1729696539049902000,10.210902099609376,9.696016311645508,0.5027918815612793,-0.39511483907699585
1729696539059670300,10.220670166015625,9.681659698486328,0.46450668573379517,-0.38793638348579407
1729696539069438500,10.2304384765625,9.684052467346191,0.4788636267185211,-0.40229329466819763
1729696539079206700,10.24020654296875,9.686445236206055,0.48843491077423096,-0.41904306411743164
1729696539088974800,10.249974853515624,9.676874160766602,0.5051847100257874,-0.40707895159721375
1729696539098743000,10.259742919921875,9.672088623046875,0.5099703073501587,-0.40707895159721375
1729696539108511200,10.26951123046875,9.691230773925781,0.4860421121120453,-0.3975076675415039
1729696539118279400,10.279279541015624,9.700801849365234,0.5003990530967712,-0.40229329466819763
1729696539128047600,10.289047607421875,9.688838005065918,0.5003990530967712,-0.38793638348579407
1729696539137815800,10.29881591796875,9.684052467346191,0.4980062246322632,-0.40229329466819763
1729696539147584000,10.308583984375,9.686445236206055,0.4860421121120453,-0.4046861231327057
1729696539157352200,10.318352294921874,9.688838005065918,0.5003990530967712,-0.40229329466819763
1729696539167120400,10.328120361328125,9.703194618225098,0.4956133961677551,-0.3927220106124878
1729696539176888600,10.337888671875,9.691230773925781,0.4812564551830292,-0.385543555021286
1729696539186656800,10.34765673828125,9.691230773925781,0.5027918815612793,-0.37118661403656006
1729696539196425000,10.357425048828125,9.679266929626465,0.5123631358146667,-0.40229329466819763
1729696539206193200,10.367193115234375,9.674481391906738,0.4812564551830292,-0.4046861231327057
1729696539215961300,10.37696142578125,9.705587387084961,0.4956133961677551,-0.39511483907699585
1729696539225729500,10.3867294921875,9.674481391906738,0.490827739238739,-0.38793638348579407
1729696539235497700,10.396497802734375,9.686445236206055,0.5051847100257874,-0.41904306411743164
1729696539245266200,10.40626611328125,9.696016311645508,0.5003990530967712,-0.4046861231327057
1729696539255034000,10.4160341796875,9.674481391906738,0.5147559642791748,-0.40707895159721375
1729696539264802600,10.425802490234375,9.691230773925781,0.5027918815612793,-0.39032918214797974
1729696539274570800,10.43557080078125,9.688838005065918,0.4956133961677551,-0.3975076675415039
1729696539284339000,10.4453388671875,9.693623542785645,0.4740779995918274,-0.40707895159721375
1729696539294107100,10.455107177734375,9.688838005065918,0.4956133961677551,-0.37836506962776184
1729696539303875300,10.464875244140625,9.674481391906738,0.48843491077423096,-0.40229329466819763
1729696539313643500,10.4746435546875,9.674481391906738,0.48364928364753723,-0.38315072655677795
1729696539323411700,10.48441162109375,9.696016311645508,0.4980062246322632,-0.38793638348579407
1729696539333180000,10.494179931640625,9.679266929626465,0.490827739238739,-0.40229329466819763
1729696539342948000,10.503947998046876,9.696016311645508,0.5003990530967712,-0.3927220106124878
1729696539352716300,10.51371630859375,9.700801849365234,0.5147559642791748,-0.385543555021286
1729696539362484500,10.523484375,9.681659698486328,0.47647079825401306,-0.385543555021286
1729696539372252700,10.533252685546875,9.691230773925781,0.47647079825401306,-0.3927220106124878
1729696539382020900,10.543020751953126,9.691230773925781,0.4740779995918274,-0.39032918214797974
1729696539391789000,10.5527890625,9.674481391906738,0.5075774788856506,-0.39990049600601196
1729696539401557200,10.56255712890625,9.681659698486328,0.48364928364753723,-0.3927220106124878
1729696539411325400,10.572325439453126,9.693623542785645,0.5099703073501587,-0.3975076675415039
1729696539421093600,10.58209375,9.679266929626465,0.5075774788856506,-0.39032918214797974
1729696539430861800,10.59186181640625,9.684052467346191,0.5003990530967712,-0.40707895159721375
1729696539440630000,10.601630126953125,9.681659698486328,0.5147559642791748,-0.3927220106124878
1729696539450398200,10.611398193359374,9.684052467346191,0.5099703073501587,-0.39990049600601196
1729696539460166400,10.62116650390625,9.679266929626465,0.5099703073501587,-0.38793638348579407
1729696539469934600,10.6309345703125,9.688838005065918,0.48843491077423096,-0.39990049600601196
1729696539479702800,10.640702880859376,9.679266929626465,0.5027918815612793,-0.38793638348579407
1729696539489471000,10.650470947265624,9.679266929626465,0.490827739238739,-0.4046861231327057
1729696539499239200,10.6602392578125,9.674481391906738,0.5027918815612793,-0.39511483907699585
1729696539509007400,10.67000732421875,9.676874160766602,0.49322056770324707,-0.4166502356529236
1729696539518775800,10.67977587890625,9.691230773925781,0.49322056770324707,-0.3975076675415039
1729696539528543700,10.689543701171875,9.686445236206055,0.5051847100257874,-0.37597227096557617
1729696539538312200,10.699312255859375,9.684052467346191,0.48364928364753723,-0.4046861231327057
1729696539548080400,10.709080322265624,9.703194618225098,0.5003990530967712,-0.4094717800617218
1729696539557848600,10.7188486328125,9.698409080505371,0.521934449672699,-0.39032918214797974
1729696539567616800,10.72861669921875,9.698409080505371,0.5003990530967712,-0.40707895159721375
1729696539577385000,10.738385009765626,9.676874160766602,0.48843491077423096,-0.4046861231327057
1729696539587153200,10.748153076171874,9.681659698486328,0.4788636267185211,-0.38315072655677795
1729696539596921300,10.75792138671875,9.700801849365234,0.4956133961677551,-0.39990049600601196
1729696539606689500,10.767689453125,9.705587387084961,0.5027918815612793,-0.4142574071884155
1729696539616457700,10.777457763671874,9.681659698486328,0.5195416212081909,-0.3927220106124878
1729696539626226000,10.787225830078125,9.672088623046875,0.5123631358146667,-0.40229329466819763
1729696539635994000,10.796994140625,9.669695854187012,0.49322056770324707,-0.40229329466819763
1729696539645762300,10.80676220703125,9.679266929626465,0.5171487927436829,-0.3975076675415039
1729696539655530500,10.816530517578125,9.684052467346191,0.4980062246322632,-0.385543555021286
1729696539665298700,10.826298583984375,9.698409080505371,0.4956133961677551,-0.38793638348579407
1729696539675067000,10.83606689453125,9.688838005065918,0.4788636267185211,-0.3975076675415039
1729696539684835000,10.8458349609375,9.696016311645508,0.4860421121120453,-0.3807578980922699
1729696539694603300,10.855603271484375,9.696016311645508,0.5147559642791748,-0.3927220106124878
1729696539704371500,10.865371337890625,9.693623542785645,0.4980062246322632,-0.41186460852622986
1729696539714139600,10.8751396484375,9.681659698486328,0.4980062246322632,-0.4142574071884155
1729696539723907800,10.884907958984375,9.698409080505371,0.5075774788856506,-0.39511483907699585
1729696539733676000,10.894676025390625,9.691230773925781,0.49322056770324707,-0.38793638348579407
1729696539743444200,10.9044443359375,9.684052467346191,0.490827739238739,-0.4046861231327057
1729696539753212700,10.914212646484375,9.672088623046875,0.47647079825401306,-0.4166502356529236
1729696539762980900,10.92398095703125,9.676874160766602,0.4860421121120453,-0.4142574071884155
1729696539772749000,10.9337490234375,9.681659698486328,0.5027918815612793,-0.39032918214797974
1729696539782517200,10.943517333984374,9.693623542785645,0.521934449672699,-0.40229329466819763
1729696539792285400,10.953285400390625,9.688838005065918,0.4788636267185211,-0.41904306411743164
1729696539802053600,10.9630537109375,9.688838005065918,0.48364928364753723,-0.40707895159721375
1729696539811821800,10.97282177734375,9.691230773925781,0.4956133961677551,-0.39511483907699585
1729696539821590000,10.982590087890625,9.696016311645508,0.4980062246322632,-0.39511483907699585
1729696539831358200,10.992358154296875,9.672088623046875,0.5315057039260864,-0.3927220106124878
1729696539841126400,11.00212646484375,9.698409080505371,0.47647079825401306,-0.4142574071884155
1729696539850894600,11.01189453125,9.686445236206055,0.5027918815612793,-0.40229329466819763
1729696539860662800,11.021662841796875,9.676874160766602,0.4956133961677551,-0.39511483907699585
1729696539870431000,11.031430908203125,9.688838005065918,0.5123631358146667,-0.4142574071884155
1729696539880199200,11.04119921875,9.696016311645508,0.5147559642791748,-0.39990049600601196
1729696539889967400,11.05096728515625,9.681659698486328,0.5075774788856506,-0.40707895159721375
1729696539899735600,11.060735595703125,9.679266929626465,0.5147559642791748,-0.4142574071884155
1729696539909503700,11.070503662109376,9.688838005065918,0.4980062246322632,-0.3927220106124878
1729696539919272000,11.08027197265625,9.681659698486328,0.4812564551830292,-0.385543555021286
1729696539929040100,11.0900400390625,9.681659698486328,0.4740779995918274,-0.4046861231327057
1729696539938808300,11.099808349609376,9.679266929626465,0.49322056770324707,-0.4142574071884155
1729696539948576500,11.109576416015624,9.698409080505371,0.48364928364753723,-0.4046861231327057
1729696539958345000,11.119344970703125,9.686445236206055,0.5147559642791748,-0.4094717800617218
1729696539968113200,11.129113037109375,9.684052467346191,0.46450668573379517,-0.4142574071884155
1729696539977881300,11.13888134765625,9.703194618225098,0.5003990530967712,-0.39511483907699585
1729696539987649500,11.1486494140625,9.681659698486328,0.5003990530967712,-0.3975076675415039
1729696539997417700,11.158417724609375,9.698409080505371,0.49322056770324707,-0.38793638348579407
1729696540007186000,11.16818603515625,9.693623542785645,0.5315057039260864,-0.3975076675415039
1729696540016954000,11.1779541015625,9.696016311645508,0.4980062246322632,-0.38793638348579407
1729696540026722300,11.187722412109375,9.688838005065918,0.4980062246322632,-0.39990049600601196
1729696540036490500,11.197490478515626,9.686445236206055,0.5123631358146667,-0.37836506962776184
1729696540046258700,11.2072587890625,9.681659698486328,0.49322056770324707,-0.38793638348579407
1729696540056027000,11.21702685546875,9.686445236206055,0.4980062246322632,-0.39511483907699585
1729696540065795000,11.226795166015625,9.705587387084961,0.4860421121120453,-0.3927220106124878
1729696540075563300,11.236563232421876,9.681659698486328,0.5027918815612793,-0.3807578980922699
1729696540085331500,11.24633154296875,9.703194618225098,0.5003990530967712,-0.4166502356529236
1729696540095099600,11.256099609375,9.681659698486328,0.5099703073501587,-0.38315072655677795
1729696540104868000,11.2658681640625,9.688838005065918,0.4692923426628113,-0.3975076675415039
1729696540114636000,11.275635986328124,9.693623542785645,0.5195416212081909,-0.40229329466819763
1729696540124404500,11.285404541015625,9.686445236206055,0.5123631358146667,-0.385543555021286
1729696540134172700,11.295172607421875,9.684052467346191,0.5003990530967712,-0.39511483907699585
1729696540143940900,11.30494091796875,9.700801849365234,0.49322056770324707,-0.38793638348579407
1729696540153709000,11.314708984375,9.698409080505371,0.524327278137207,-0.3975076675415039
1729696540163477200,11.324477294921875,9.693623542785645,0.49322056770324707,-0.4046861231327057
1729696540173245400,11.334245361328126,9.684052467346191,0.47647079825401306,-0.37597227096557617
1729696540183013600,11.344013671875,9.686445236206055,0.5051847100257874,-0.3975076675415039
1729696540192781800,11.35378173828125,9.686445236206055,0.49322056770324707,-0.3975076675415039
1729696540202550000,11.363550048828126,9.693623542785645,0.4956133961677551,-0.39032918214797974
1729696540212318200,11.373318115234374,9.686445236206055,0.5003990530967712,-0.41186460852622986
1729696540222086400,11.38308642578125,9.684052467346191,0.490827739238739,-0.40229329466819763
1729696540231854600,11.3928544921875,9.691230773925781,0.5075774788856506,-0.4094717800617218
1729696540241622800,11.402622802734374,9.703194618225098,0.5075774788856506,-0.3927220106124878
1729696540251391000,11.412390869140625,9.679266929626465,0.5003990530967712,-0.4094717800617218
1729696540261159200,11.4221591796875,9.674481391906738,0.48843491077423096,-0.4094717800617218
1729696540270927600,11.431927734375,9.686445236206055,0.521934449672699,-0.39511483907699585
1729696540280695800,11.44169580078125,9.691230773925781,0.4812564551830292,-0.3927220106124878
1729696540290464000,11.451464111328125,9.693623542785645,0.4860421121120453,-0.4094717800617218
1729696540300232200,11.461232177734376,9.700801849365234,0.5003990530967712,-0.40229329466819763
1729696540310000400,11.47100048828125,9.688838005065918,0.48364928364753723,-0.39032918214797974
1729696540319768600,11.4807685546875,9.684052467346191,0.5003990530967712,-0.4046861231327057
1729696540329536800,11.490536865234375,9.688838005065918,0.4980062246322632,-0.38793638348579407
1729696540339305000,11.500304931640626,9.688838005065918,0.4980062246322632,-0.39990049600601196
1729696540349073200,11.5100732421875,9.696016311645508,0.490827739238739,-0.4046861231327057
1729696540358841300,11.51984130859375,9.681659698486328,0.490827739238739,-0.3975076675415039
1729696540368609500,11.529609619140626,9.672088623046875,0.48364928364753723,-0.3807578980922699
1729696540378377700,11.539377685546874,9.691230773925781,0.524327278137207,-0.40229329466819763
1729696540388146000,11.54914599609375,9.676874160766602,0.5051847100257874,-0.4046861231327057
1729696540397914000,11.5589140625,9.691230773925781,0.48843491077423096,-0.39032918214797974
1729696540407682600,11.5686826171875,9.696016311645508,0.490827739238739,-0.39032918214797974
1729696540417450800,11.57845068359375,9.691230773925781,0.5099703073501587,-0.39990049600601196
1729696540427219000,11.588218994140625,9.698409080505371,0.4788636267185211,-0.40707895159721375
1729696540436987100,11.597987060546876,9.676874160766602,0.49322056770324707,-0.40707895159721375
1729696540446755300,11.60775537109375,9.681659698486328,0.49322056770324707,-0.39990049600601196
1729696540456523500,11.6175234375,9.676874160766602,0.5027918815612793,-0.385543555021286
1729696540466291700,11.627291748046876,9.691230773925781,0.48364928364753723,-0.385543555021286
1729696540476060000,11.637059814453124,9.676874160766602,0.4740779995918274,-0.38315072655677795
1729696540485828000,11.646828125,9.693623542785645,0.48843491077423096,-0.39032918214797974
1729696540495596300,11.65659619140625,9.681659698486328,0.5027918815612793,-0.39511483907699585
1729696540505364500,11.666364501953124,9.681659698486328,0.5051847100257874,-0.3927220106124878
1729696540515132700,11.676132568359375,9.681659698486328,0.49322056770324707,-0.40229329466819763
1729696540524901000,11.685901123046875,9.698409080505371,0.490827739238739,-0.41904306411743164
1729696540534669000,11.6956689453125,9.688838005065918,0.4788636267185211,-0.4094717800617218
1729696540544437500,11.7054375,9.676874160766602,0.490827739238739,-0.40229329466819763
1729696540554205700,11.715205810546875,9.686445236206055,0.5003990530967712,-0.4166502356529236
1729696540563974000,11.724973876953126,9.674481391906738,0.48364928364753723,-0.39990049600601196
1729696540573742000,11.7347421875,9.693623542785645,0.5099703073501587,-0.40229329466819763
1729696540583510300,11.74451025390625,9.698409080505371,0.490827739238739,-0.385543555021286
1729696540593278500,11.754278564453125,9.698409080505371,0.49322056770324707,-0.4046861231327057
1729696540603046700,11.764046630859376,9.674481391906738,0.5075774788856506,-0.41186460852622986
1729696540612814800,11.77381494140625,9.703194618225098,0.49322056770324707,-0.4142574071884155
1729696540622583000,11.7835830078125,9.705587387084961,0.5003990530967712,-0.38793638348579407
1729696540632351200,11.793351318359376,9.679266929626465,0.5027918815612793,-0.40229329466819763
1729696540642119400,11.803119384765624,9.700801849365234,0.4980062246322632,-0.39990049600601196
1729696540651887600,11.8128876953125,9.688838005065918,0.48843491077423096,-0.3735794425010681
1729696540661656000,11.822656005859375,9.684052467346191,0.5027918815612793,-0.37836506962776184
1729696540671424300,11.83242431640625,9.696016311645508,0.4860421121120453,-0.39990049600601196
1729696540681192400,11.8421923828125,9.669695854187012,0.5075774788856506,-0.40229329466819763
1729696540690960600,11.851960693359375,9.71515941619873,0.48364928364753723,-0.4046861231327057
1729696540700728800,11.861728759765626,9.698409080505371,0.4812564551830292,-0.385543555021286
1729696540710497000,11.8714970703125,9.688838005065918,0.4860421121120453,-0.39990049600601196
1729696540720265200,11.88126513671875,9.696016311645508,0.5099703073501587,-0.3975076675415039
1729696540730033400,11.891033447265626,9.693623542785645,0.4956133961677551,-0.39032918214797974
1729696540739801600,11.900801513671874,9.705587387084961,0.5075774788856506,-0.3975076675415039
1729696540749569800,11.91056982421875,9.679266929626465,0.4812564551830292,-0.4094717800617218
1729696540759338000,11.920337890625,9.679266929626465,0.49322056770324707,-0.40229329466819763
1729696540769106400,11.9301064453125,9.688838005065918,0.49322056770324707,-0.39032918214797974
1729696540778874400,11.939874267578125,9.698409080505371,0.49322056770324707,-0.38793638348579407
1729696540788642800,11.949642822265625,9.693623542785645,0.48843491077423096,-0.39990049600601196
1729696540798411000,11.959410888671876,9.679266929626465,0.5171487927436829,-0.39990049600601196
1729696540808179200,11.96917919921875,9.684052467346191,0.49322056770324707,-0.4094717800617218
1729696540817947400,11.978947509765625,9.707980155944824,0.4956133961677551,-0.385543555021286
1729696540827715600,11.988715576171876,9.717552185058594,0.5027918815612793,-0.40707895159721375
1729696540837483800,11.99848388671875,9.686445236206055,0.48364928364753723,-0.39990049600601196
1729696540847252000,12.008251953125,9.684052467346191,0.4812564551830292,-0.3927220106124878
1729696540857020200,12.018020263671875,9.679266929626465,0.5051847100257874,-0.4046861231327057
1729696540866788400,12.027788330078126,9.686445236206055,0.49322056770324707,-0.3807578980922699
1729696540876556800,12.037556884765625,9.686445236206055,0.5003990530967712,-0.3927220106124878
1729696540886324700,12.04732470703125,9.684052467346191,0.4956133961677551,-0.385543555021286
1729696540896093200,12.05709326171875,9.696016311645508,0.5147559642791748,-0.37836506962776184
1729696540905861400,12.066861328125,9.688838005065918,0.490827739238739,-0.39032918214797974
1729696540915629600,12.076629638671875,9.681659698486328,0.4980062246322632,-0.4214358925819397
1729696540925397800,12.086397705078125,9.691230773925781,0.5051847100257874,-0.39511483907699585
1729696540935166000,12.096166015625,9.681659698486328,0.4956133961677551,-0.40707895159721375
1729696540944934100,12.10593408203125,9.691230773925781,0.48364928364753723,-0.3927220106124878
1729696540954702300,12.115702392578125,9.681659698486328,0.4860421121120453,-0.39990049600601196
1729696540964470500,12.125470458984376,9.676874160766602,0.4980062246322632,-0.38793638348579407
1729696540974238700,12.13523876953125,9.679266929626465,0.48364928364753723,-0.4046861231327057
1729696540984007200,12.145007080078125,9.686445236206055,0.5027918815612793,-0.3927220106124878
1729696540993775000,12.154775146484376,9.676874160766602,0.5075774788856506,-0.3927220106124878
1729696541003543600,12.16454345703125,9.698409080505371,0.4812564551830292,-0.39032918214797974
1729696541013311700,12.174311767578125,9.700801849365234,0.4956133961677551,-0.4046861231327057
1729696541023080000,12.184079833984375,9.686445236206055,0.48843491077423096,-0.39990049600601196
1729696541032848100,12.19384814453125,9.686445236206055,0.5051847100257874,-0.3975076675415039
1729696541042616300,12.2036162109375,9.684052467346191,0.5171487927436829,-0.39990049600601196
1729696541052384500,12.213384521484375,9.686445236206055,0.4980062246322632,-0.41904306411743164
1729696541062152700,12.223152587890626,9.669695854187012,0.4956133961677551,-0.4046861231327057
1729696541071921000,12.2329208984375,9.684052467346191,0.490827739238739,-0.37836506962776184
1729696541081689000,12.242689208984375,9.672088623046875,0.490827739238739,-0.39511483907699585
1729696541091457300,12.252457275390626,9.700801849365234,0.4860421121120453,-0.39990049600601196
1729696541101225700,12.262225830078124,9.674481391906738,0.5003990530967712,-0.3975076675415039
1729696541110994000,12.271993896484375,9.679266929626465,0.5003990530967712,-0.4046861231327057
1729696541120762000,12.28176220703125,9.686445236206055,0.5075774788856506,-0.3975076675415039
1729696541130530300,12.2915302734375,9.686445236206055,0.4980062246322632,-0.3975076675415039
1729696541140298500,12.301298583984375,9.700801849365234,0.4812564551830292,-0.385543555021286
1729696541150066700,12.311066650390625,9.705587387084961,0.4860421121120453,-0.4094717800617218
1729696541159835000,12.3208349609375,9.676874160766602,0.4788636267185211,-0.4046861231327057
1729696541169603000,12.33060302734375,9.676874160766602,0.4956133961677551,-0.3927220106124878
1729696541179371300,12.340371337890625,9.698409080505371,0.5123631358146667,-0.39511483907699585
1729696541189139700,12.3501396484375,9.698409080505371,0.4980062246322632,-0.41904306411743164
1729696541198907600,12.35990771484375,9.703194618225098,0.5123631358146667,-0.3927220106124878
1729696541208676000,12.369676025390625,9.688838005065918,0.5147559642791748,-0.3807578980922699
1729696541218444300,12.3794443359375,9.691230773925781,0.5003990530967712,-0.3927220106124878
1729696541228212500,12.38921240234375,9.679266929626465,0.5099703073501587,-0.39990049600601196
1729696541237980700,12.398980712890625,9.686445236206055,0.4956133961677551,-0.385543555021286
1729696541247748900,12.408748779296875,9.679266929626465,0.5051847100257874,-0.3927220106124878
1729696541257517000,12.41851708984375,9.688838005065918,0.5027918815612793,-0.3927220106124878
1729696541267285200,12.42828515625,9.698409080505371,0.4980062246322632,-0.3927220106124878
1729696541277053400,12.438053466796875,9.691230773925781,0.490827739238739,-0.39990049600601196
1729696541286822000,12.44782177734375,9.696016311645508,0.5003990530967712,-0.4166502356529236
