time,seconds_elapsed,z,y,x
1729696936545318000,0.02731787109375,0,0,0
1729696936555087000,0.037087158203125,0.011925697326660156,-0.003371596336364746,0.013561427593231201
1729696936564856300,0.046856201171875,0.007933616638183594,-0.011758804321289062,0.011886060237884521
1729696936574625500,0.05662548828125,0.014966964721679688,-0.00720977783203125,0.0042313337326049805
1729696936584394800,0.066394775390625,0.0062923431396484375,-0.006155133247375488,-0.016567379236221313
1729696936594164000,0.0761640625,-0.00868988037109375,-0.01531374454498291,0.0006982386112213135
1729696936603933200,0.08593310546875,-0.013628005981445312,0.011581063270568848,-0.014251857995986938
1729696936613702400,0.095702392578125,-0.01826763153076172,-0.016815543174743652,-0.009335041046142578
1729696936623471600,0.1054716796875,0.011389732360839844,-0.001992940902709961,0.00801539421081543
1729696936633240800,0.11524072265625,0.012410163879394531,0.0024979710578918457,-0.0034457147121429443
1729696936643010000,0.125010009765625,0.004791259765625,-0.015316188335418701,0.015024304389953613
1729696936652779300,0.134779296875,-0.004351615905761719,-0.0031930208206176758,-0.00747796893119812
1729696936662548500,0.144548583984375,-0.012860298156738281,-0.0028611421585083008,-0.0046853721141815186
1729696936672318000,0.15431787109375,-0.014204978942871094,-0.0024091005325317383,-0.009486645460128784
1729696936682087200,0.164087158203125,0.009049415588378906,-0.013277590274810791,0.0015739798545837402
1729696936691856400,0.1738564453125,0.003983497619628906,0.00778806209564209,-0.0009751319885253906
1729696936701625600,0.18362548828125,0.008280754089355469,-0.001812577247619629,-0.01850152015686035
1729696936711394800,0.193394775390625,0.0010652542114257812,0.009463667869567871,0.003429204225540161
1729696936721164000,0.2031640625,0.007823944091796875,0.008946895599365234,-0.010130524635314941
1729696936730933200,0.212933349609375,-0.010781288146972656,-0.002728760242462158,-0.0030675530433654785
1729696936740702500,0.222702392578125,-0.0034551620483398438,-0.011572957038879395,0.007994413375854492
1729696936750471700,0.2324716796875,0.012686729431152344,0.016412734985351562,-0.01320156455039978
1729696936760241000,0.242240966796875,0.005275726318359375,-0.01643514633178711,0.008158743381500244
1729696936770010000,0.252010009765625,0.0004930496215820312,-0.0021138787269592285,-0.005493909120559692
1729696936779779300,0.261779296875,-0.00640869140625,-0.0021036863327026367,-0.0027433931827545166
1729696936789548500,0.271548583984375,-0.010774612426757812,-0.004285961389541626,0.001812964677810669
1729696936799317800,0.28131787109375,-0.0011701583862304688,-0.00634041428565979,-0.01235419511795044
1729696936809087000,0.2910869140625,0.012715339660644531,0.00546342134475708,0.0156308114528656
1729696936818856400,0.3008564453125,0.0076580047607421875,-0.00861552357673645,0.008220702409744263
1729696936828625700,0.310625732421875,-0.006466865539550781,-0.03160202503204346,-0.003390789031982422
1729696936838395000,0.320394775390625,-0.015512466430664062,0.011046111583709717,-0.0007303059101104736
1729696936848164000,0.3301640625,0.005840301513671875,-0.010135769844055176,0.010843664407730103
1729696936857933300,0.339933349609375,0.0010089874267578125,-0.009845435619354248,-0.006058245897293091
1729696936867702500,0.34970263671875,0.0056171417236328125,-0.01648998260498047,0.00790455937385559
1729696936877471700,0.3594716796875,0.024065017700195312,0.004893243312835693,0.010015130043029785
1729696936887241000,0.369240966796875,0.01643085479736328,-0.00003165006637573242,-0.020289450883865356
1729696936897010200,0.37901025390625,0.00901031494140625,-0.00942373275756836,0.03168490529060364
1729696936906779400,0.388779296875,-0.005211830139160156,0.00012940168380737305,0.007550865411758423
1729696936916548600,0.398548583984375,-0.009748458862304688,-0.009169965982437134,0.0025870800018310547
1729696936926317800,0.40831787109375,-0.00016689300537109375,0.002657294273376465,0.004813939332962036
1729696936936087000,0.418087158203125,-0.00015163421630859375,-0.01850450038909912,0.009547770023345947
1729696936945856500,0.4278564453125,-0.009482383728027344,-0.0018340051174163818,0.009503275156021118
1729696936955625700,0.437625732421875,0.00010204315185546875,-0.008879989385604858,0.00011149048805236816
1729696936965395000,0.44739501953125,-0.013941764831542969,0.017095625400543213,0.018780767917633057
1729696936975164200,0.4571640625,-0.0019388198852539062,0.01435774564743042,-0.0006324648857116699
1729696936984933400,0.466933349609375,0.0027799606323242188,-0.01876470446586609,0.013215422630310059
1729696936994702600,0.47670263671875,0.002727508544921875,-0.04187512397766113,0.0036259591579437256
1729696937004471800,0.486471923828125,-0.009039878845214844,-0.015292167663574219,0.008362799882888794
1729696937014241000,0.496240966796875,-0.004158973693847656,-0.012710750102996826,0.015295237302780151
1729696937024010200,0.50601025390625,-0.013463020324707031,-0.0007447600364685059,-0.008575290441513062
1729696937033779500,0.515779541015625,-0.0061511993408203125,-0.017236173152923584,-0.017728328704833984
1729696937043548700,0.525548583984375,-0.0060291290283203125,-0.0028333961963653564,-0.024361222982406616
1729696937053318000,0.53531787109375,-0.012965202331542969,-0.019241750240325928,0.001834094524383545
1729696937063087000,0.545087158203125,-0.012727737426757812,0.006944924592971802,0.004050225019454956
1729696937072856300,0.554856201171875,-0.0007429122924804688,0.04206010699272156,-0.03596937656402588
1729696937082625500,0.56462548828125,-0.007779121398925781,0.00366818904876709,-0.007043391466140747
1729696937092395000,0.57439501953125,0.008826255798339844,-0.0034695565700531006,0.00961536169052124
1729696937102164200,0.584164306640625,-0.01013946533203125,0.020042389631271362,-0.02101278305053711
1729696937111933400,0.593933349609375,0.004162788391113281,0.012509196996688843,-0.03471013903617859
1729696937121702700,0.60370263671875,-0.007679939270019531,-0.02073422074317932,-0.008395016193389893
1729696937131472000,0.613471923828125,-0.009914398193359375,-0.01098892092704773,-0.00846850872039795
1729696937141241000,0.623240966796875,0.004372596740722656,-0.003762573003768921,-0.029617905616760254
1729696937151010300,0.63301025390625,-0.009822845458984375,-0.008484423160552979,0.0037885308265686035
1729696937160779500,0.642779541015625,-0.00965118408203125,0.015065997838973999,-0.008034765720367432
1729696937170548700,0.652548828125,0.025827407836914062,0.033572256565093994,0.027422934770584106
1729696937180318000,0.66231787109375,-0.009917259216308594,-0.0023219287395477295,-0.0036875903606414795
1729696937190087200,0.672087158203125,0.006724357604980469,0.021237075328826904,0.005684912204742432
1729696937199856400,0.6818564453125,-0.00045299530029296875,-0.0003808736801147461,-0.011048734188079834
1729696937209625600,0.69162548828125,0.011321067810058594,0.006668686866760254,0.0219346284866333
1729696937219394800,0.701394775390625,0.0017099380493164062,0.01601177453994751,0.030883073806762695
1729696937229164300,0.711164306640625,0.0016880035400390625,0.018022894859313965,-0.004876941442489624
1729696937238933500,0.72093359375,-0.0006837844848632812,0.0011646747589111328,0.0000909268856048584
1729696937248702700,0.73070263671875,0.001689910888671875,-0.006052643060684204,-0.023444712162017822
1729696937258472000,0.740471923828125,-0.007760047912597656,-0.022393733263015747,-0.030219316482543945
1729696937268241200,0.7502412109375,0.008843421936035156,0.008562326431274414,0.005434781312942505
1729696937278010400,0.76001025390625,-0.0007276535034179688,-0.012789785861968994,-0.027777045965194702
1729696937287779600,0.769779541015625,-0.012488365173339844,-0.03378614783287048,0.0008305609226226807
1729696937297548800,0.779548828125,-0.009924888610839844,0.009074032306671143,0.01724720001220703
1729696937307318000,0.789318115234375,0.009082794189453125,0.011141777038574219,0.009905010461807251
1729696937317087200,0.799087158203125,0.0018701553344726562,-0.022022098302841187,-0.009082823991775513
1729696937326856400,0.8088564453125,0.02067279815673828,-0.000545799732208252,-0.009037137031555176
1729696937336625700,0.818625732421875,0.006196022033691406,-0.007505089044570923,-0.020703494548797607
1729696937346395000,0.828394775390625,0.0060939788818359375,-0.0002868771553039551,-0.022653818130493164
1729696937356164000,0.8381640625,-0.0010728836059570312,0.0067588090896606445,0.0011599957942962646
1729696937365933300,0.847933349609375,0.0012969970703125,0.004213511943817139,0.012749165296554565
1729696937375702500,0.85770263671875,0.017749786376953125,0.006532549858093262,-0.006402641534805298
1729696937385472000,0.867471923828125,0.02216815948486328,-0.012486040592193604,-0.0015198886394500732
1729696937395241200,0.8772412109375,0.0029668807983398438,-0.01936224102973938,0.014992684125900269
1729696937405010400,0.887010498046875,0.014675140380859375,-0.03077542781829834,0.021529287099838257
1729696937414779600,0.896779541015625,0.0073604583740234375,-0.01610448956489563,0.004525601863861084
1729696937424548900,0.906548828125,-0.011597633361816406,0.01474452018737793,0.013815104961395264
1729696937434318000,0.916318115234375,-0.004338264465332031,-0.016127467155456543,0.016003727912902832
1729696937444087300,0.92608740234375,0.014571189880371094,0.005309730768203735,0.001679450273513794
1729696937453856500,0.9358564453125,0.000209808349609375,0.005145072937011719,-0.0029892921447753906
1729696937463625700,0.945625732421875,-0.0021467208862304688,-0.016147851943969727,0.006488144397735596
1729696937473395000,0.95539501953125,-0.006827354431152344,-0.004072606563568115,0.006217509508132935
1729696937483164200,0.9651640625,-0.013789176940917969,0.019626915454864502,0.005891650915145874
1729696937492933400,0.974933349609375,0.0029134750366210938,-0.006561219692230225,0.008041948080062866
1729696937502702600,0.98470263671875,0.009934425354003906,0.0028887689113616943,0.0126839280128479
1729696937512471800,0.994471923828125,0.005064964294433594,-0.008949756622314453,0.0031801462173461914
1729696937522241000,1.004240966796875,-0.016203880310058594,-0.015884846448898315,-0.01334431767463684
1729696937532010500,1.014010498046875,0.007599830627441406,-0.01087653636932373,-0.0015134215354919434
1729696937541779700,1.02377978515625,0.00040721893310546875,0.015179216861724854,-0.01807326078414917
1729696937551549000,1.033548828125,0.012173652648925781,0.021969467401504517,-0.003636002540588379
1729696937561318100,1.043318115234375,0.011977195739746094,-0.016142308712005615,-0.01528167724609375
1729696937571087400,1.05308740234375,-0.00940704345703125,0.01947939395904541,0.0062881410121917725
1729696937580856600,1.062856689453125,0.00016021728515625,0.03567147254943848,-0.0033362209796905518
1729696937590625800,1.072625732421875,-0.006922721862792969,0.011631429195404053,0.005809098482131958
1729696937600395000,1.08239501953125,0.00024509429931640625,-0.009712815284729004,0.005495905876159668
1729696937610164200,1.092164306640625,0.012011528015136719,-0.028403908014297485,-0.006412625312805176
1729696937619933400,1.101933349609375,0.004756927490234375,0.035554349422454834,0.0008782744407653809
1729696937629702700,1.11170263671875,-0.0023794174194335938,0.001981377601623535,-0.04845303297042847
1729696937639471900,1.121471923828125,-0.0023479461669921875,-0.016850173473358154,-0.012495070695877075
1729696937649241000,1.131240966796875,-0.0070362091064453125,0.021132946014404297,0.00374603271484375
1729696937659010300,1.14101025390625,0.00012874603271484375,-0.016853630542755127,0.03159812092781067
1729696937668779500,1.150779541015625,0.0048351287841796875,-0.0024146735668182373,0.01465386152267456
1729696937678548700,1.160548828125,-0.004638671875,-0.011983215808868408,-0.02290886640548706
1729696937688318200,1.170318115234375,-0.0021791458129882812,-0.016627192497253418,0.015659183263778687
1729696937698087400,1.18008740234375,-0.0021295547485351562,0.007113397121429443,0.0015080571174621582
1729696937707856600,1.189856689453125,-0.009160995483398438,0.018800973892211914,-0.015102177858352661
1729696937717625900,1.1996259765625,-0.004321098327636719,-0.01673346757888794,0.008301794528961182
1729696937727395000,1.20939501953125,0.019277572631835938,0.025958359241485596,0.03137543797492981
1729696937737164300,1.219164306640625,0.0071964263916015625,0.001962125301361084,-0.0018711984157562256
1729696937746933500,1.22893359375,0.02830028533935547,-0.000616908073425293,-0.008213132619857788
1729696937756702700,1.23870263671875,0.0019636154174804688,-0.01727581024169922,0.0018626153469085693
1729696937766472000,1.248471923828125,-0.007481575012207031,-0.0075927674770355225,-0.007520556449890137
1729696937776241200,1.2582412109375,-0.009730339050292969,0.027881860733032227,0.00863763689994812
1729696937786010400,1.26801025390625,-0.01666545867919922,-0.01009899377822876,0.05019843578338623
1729696937795779600,1.277779541015625,0.011844635009765625,-0.026318073272705078,0.020778506994247437
1729696937805548800,1.287548828125,0.023438453674316406,0.018715083599090576,0.011364072561264038
1729696937815318000,1.297318115234375,-0.009868621826171875,0.04881328344345093,-0.06335943937301636
1729696937825087200,1.307087158203125,-0.00026702880859375,-0.03217822313308716,-0.03135022521018982
1729696937834856400,1.3168564453125,-0.02383136749267578,-0.02919122576713562,0.010993599891662598
1729696937844626000,1.3266259765625,0.0047550201416015625,0.05636781454086304,0.030929774045944214
1729696937854395100,1.33639501953125,0.018759727478027344,-0.0032188594341278076,-0.017454028129577637
1729696937864164400,1.346164306640625,0.011403083801269531,0.008472800254821777,0.01844465732574463
1729696937873933600,1.35593359375,0.001865386962890625,-0.06035256385803223,-0.03950813412666321
1729696937883702800,1.365702880859375,-0.002819061279296875,-0.014979422092437744,-0.014390945434570312
1729696937893472000,1.375471923828125,-0.012198448181152344,-0.02881982922554016,-0.06380859017372131
1729696937903241200,1.3852412109375,-0.00971221923828125,0.02383100986480713,0.013647764921188354
1729696937913010400,1.395010498046875,-0.009619712829589844,-0.027980268001556396,0.03807768225669861
1729696937922779600,1.404779541015625,0.021150588989257812,-0.0016939640045166016,-0.047240376472473145
1729696937932548900,1.414548828125,0.006751060485839844,0.030873775482177734,0.011418849229812622
1729696937942318000,1.424318115234375,0.0019969940185546875,-0.07829633355140686,-0.02523791790008545
1729696937952087300,1.43408740234375,-0.00038814544677734375,0.033638715744018555,0.015217840671539307
1729696937961856500,1.4438564453125,-0.01691436767578125,0.012157201766967773,-0.03548261523246765
1729696937971625700,1.453625732421875,0.02097606658935547,-0.0372166633605957,0.008773058652877808
1729696937981395000,1.46339501953125,0.013558387756347656,-0.041267335414886475,-0.007955342531204224
1729696937991164200,1.4731640625,0.015730857849121094,0.015731364488601685,-0.02579343318939209
1729696938000933400,1.482933349609375,-0.008025169372558594,-0.055403321981430054,-0.01272958517074585
1729696938010702800,1.492702880859375,-0.0055408477783203125,0.01848083734512329,0.013275980949401855
1729696938020472000,1.50247216796875,-0.017271041870117188,-0.007399648427963257,0.03570151329040527
1729696938030241300,1.5122412109375,-0.005261421203613281,-0.03520521521568298,-0.012761861085891724
1729696938040010500,1.522010498046875,0.03250694274902344,0.031220585107803345,0.01358214020729065
1729696938049779700,1.53177978515625,0.006131172180175781,0.01626935601234436,-0.058480292558670044
1729696938059549000,1.541548828125,-0.007843971252441406,-0.06015309691429138,-0.047620028257369995
1729696938069318100,1.551318115234375,0.013934135437011719,-0.010981470346450806,0.2781330347061157
1729696938079087400,1.56108740234375,-0.4265422821044922,0.055667728185653687,0.295150488615036
1729696938088856600,1.570856689453125,-0.08513259887695312,-0.1401078999042511,0.15449628233909607
1729696938098625800,1.580625732421875,-0.12139511108398438,0.044277846813201904,-0.08521458506584167
1729696938108395000,1.59039501953125,0.09484386444091797,-0.01218348741531372,-0.05496284365653992
1729696938118164200,1.600164306640625,0.1450653076171875,-0.05874091386795044,-0.10520118474960327
1729696938127933400,1.609933349609375,-0.0880746841430664,0.06514784693717957,0.026384413242340088
1729696938137702700,1.61970263671875,0.17472171783447266,0.019197046756744385,0.08021268248558044
1729696938147472000,1.629471923828125,0.011696815490722656,-0.0024435818195343018,-0.009070277214050293
1729696938157241000,1.639240966796875,-0.11339378356933594,0.049826622009277344,-0.018409311771392822
1729696938167010300,1.64901025390625,0.23688316345214844,0.06108841300010681,-0.020899951457977295
1729696938176779800,1.65877978515625,-0.21436691284179688,-0.02935183048248291,-0.09122347831726074
1729696938186549000,1.668549072265625,0.32126617431640625,0.05317425727844238,0.03490990400314331
1729696938196318200,1.678318115234375,0.4126100540161133,-0.04984736442565918,-0.02905699610710144
1729696938206087400,1.68808740234375,0.2270050048828125,-0.030381321907043457,0.005202531814575195
1729696938215856600,1.697856689453125,-0.20319843292236328,-0.037118375301361084,-0.23180565237998962
1729696938225625900,1.7076259765625,-0.23868083953857422,-1.0421947240829468,-0.5323785543441772
1729696938235395000,1.71739501953125,-0.1290121078491211,0.22638943791389465,-0.971953809261322
1729696938245164300,1.727164306640625,0.14231586456298828,1.6672234535217285,-0.794687032699585
1729696938254933500,1.73693359375,1.0042104721069336,2.2548367977142334,-0.05484628677368164
1729696938264702700,1.74670263671875,2.677464485168457,2.3883583545684814,0.805963933467865
1729696938274472000,1.756471923828125,4.118343353271484,2.437922716140747,1.1097701787948608
1729696938284241200,1.7662412109375,4.4282426834106445,2.5883941650390625,1.1057767868041992
1729696938294010400,1.77601025390625,3.7565698623657227,3.609920024871826,0.3468601405620575
1729696938303779600,1.785779541015625,3.1070632934570312,4.621352195739746,-0.27703121304512024
1729696938313548800,1.795548828125,2.7398853302001953,4.943971633911133,-0.4152458608150482
1729696938323318000,1.805318115234375,2.669217109680176,4.3168840408325195,-0.10258117318153381
1729696938333087500,1.81508740234375,2.7959041595458984,3.56461501121521,0.4475392699241638
1729696938342856700,1.824856689453125,2.7520742416381836,3.701923131942749,0.8531296253204346
1729696938352626000,1.8346259765625,2.7988691329956055,4.231075286865234,0.8146873116493225
1729696938362395100,1.84439501953125,2.543865203857422,4.123887062072754,0.8789708614349365
1729696938372164400,1.854164306640625,1.7829761505126953,3.721290111541748,2.5473270416259766
1729696938381933600,1.86393359375,1.6463184356689453,2.715137481689453,3.723094940185547
1729696938391702800,1.873702880859375,2.2666873931884766,2.6158690452575684,2.201239585876465
1729696938401472000,1.883471923828125,2.3652753829956055,3.569277763366699,0.3875260353088379
1729696938411241200,1.8932412109375,2.0680971145629883,3.894859790802002,0.06731963157653809
1729696938421010400,1.903010498046875,2.028348922729492,3.421642780303955,0.5728747844696045
1729696938430779600,1.912779541015625,1.5525522232055664,2.7637438774108887,0.33787035942077637
1729696938440548900,1.922548828125,-1.0400676727294922,2.213266372680664,-1.1685779094696045
1729696938450318000,1.932318115234375,-0.20579814910888672,1.4066340923309326,-0.5659151077270508
1729696938460087300,1.94208740234375,-1.1114177703857422,0.5381851196289062,-1.1035919189453125
1729696938469856500,1.9518564453125,-0.9525985717773438,-0.40459179878234863,-2.1235742568969727
1729696938479626000,1.9616259765625,-0.3561229705810547,-0.867434024810791,-2.64959716796875
1729696938489395200,1.971395263671875,-0.43466663360595703,-1.0832092761993408,-3.346428155899048
1729696938499164400,1.981164306640625,-0.7554111480712891,-2.1826491355895996,-3.3886466026306152
1729696938508933600,1.99093359375,-1.049459457397461,-2.8663618564605713,-3.2279295921325684
1729696938518702800,2.000702880859375,-0.3486337661743164,-2.9025015830993652,-2.5122995376586914
1729696938528472000,2.01047216796875,0.5642766952514648,-3.3303585052490234,-1.6653313636779785
1729696938538241300,2.0202412109375,0.9960212707519531,-3.5660343170166016,-1.1428837776184082
1729696938548010500,2.030010498046875,0.6012811660766602,-3.24403715133667,-1.1700807809829712
1729696938557779700,2.03977978515625,0.4845848083496094,-2.916738510131836,-1.2965158224105835
1729696938567549000,2.049548828125,0.24173545837402344,-2.85854434967041,-1.0466387271881104
1729696938577318100,2.059318115234375,0.1957988739013672,-2.656179428100586,-0.5842139720916748
1729696938587087400,2.06908740234375,0.1871957778930664,-2.3828206062316895,0.06146502494812012
1729696938596856600,2.078856689453125,0.307861328125,-2.032728433609009,0.6953353881835938
1729696938606625800,2.088625732421875,0.633418083190918,-1.7596040964126587,1.0575196743011475
1729696938616395000,2.09839501953125,0.870427131652832,-1.5986597537994385,1.1683540344238281
1729696938626164500,2.10816455078125,0.7856330871582031,-1.596803069114685,1.2333738803863525
1729696938635933700,2.11793359375,0.435821533203125,-1.3097862005233765,1.3002896308898926
1729696938645703000,2.127702880859375,-0.1279001235961914,-1.5592072010040283,1.0113794803619385
1729696938655472000,2.13747216796875,-0.6063394546508789,-1.8719416856765747,1.305422067642212
1729696938665241300,2.147241455078125,-0.8453655242919922,-2.2969038486480713,1.741014003753662
1729696938675010600,2.157010498046875,-0.6144294738769531,-2.407207489013672,1.693746566772461
1729696938684779800,2.16677978515625,0.0499114990234375,-2.083634376525879,1.4434070587158203
1729696938694549000,2.176549072265625,1.090250015258789,-1.3980273008346558,0.6601090431213379
1729696938704318200,2.186318115234375,1.8623571395874023,-1.2298717498779297,-0.3333902359008789
1729696938714087400,2.19608740234375,2.4110193252563477,-1.3193989992141724,-0.9110543727874756
1729696938723856600,2.205856689453125,2.29669189453125,-1.2649339437484741,-0.9410312175750732
1729696938733625900,2.2156259765625,1.7947092056274414,-1.2160052061080933,-0.8094470500946045
1729696938743395000,2.22539501953125,1.2194128036499023,-1.280301809310913,-0.8505024909973145
1729696938753164300,2.235164306640625,0.11239433288574219,-0.9818905591964722,-1.094557762145996
1729696938762933800,2.244933837890625,-0.769221305847168,-0.9568803310394287,-1.2695112228393555
1729696938772703000,2.254702880859375,-0.5551977157592773,-1.1892203092575073,-1.2247629165649414
1729696938782472200,2.26447216796875,-0.35572147369384766,-1.2520530223846436,-0.9313502311706543
1729696938792241400,2.274241455078125,0.046959877014160156,-1.133789300918579,-0.6044063568115234
1729696938802010600,2.2840107421875,0.2600059509277344,-1.0472588539123535,-0.24605154991149902
1729696938811779800,2.29377978515625,0.16417217254638672,-0.15141034126281738,-0.649954080581665
1729696938821549000,2.303549072265625,-0.22234725952148438,-1.1672433614730835,-0.4188499450683594
1729696938831318300,2.313318359375,-0.7237987518310547,-2.1897661685943604,0.09829068183898926
1729696938841087500,2.32308740234375,-1.3961052894592285,-2.515500068664551,0.5830001831054688
1729696938850856700,2.332856689453125,-1.741678237915039,-1.689445972442627,0.7205915451049805
1729696938860626000,2.3426259765625,-1.483750343322754,-0.4550049304962158,0.5416972637176514
1729696938870395100,2.35239501953125,-0.8253154754638672,0.3466724157333374,0.1721045970916748
1729696938880164400,2.362164306640625,-0.1278209686279297,0.1192861795425415,0.36205434799194336
1729696938889933600,2.37193359375,0.2506113052368164,0.056838274002075195,0.524829626083374
1729696938899703000,2.381703125,0.4949817657470703,0.18532252311706543,0.5325930118560791
1729696938909472300,2.39147216796875,0.6124610900878906,1.1130931377410889,-0.3399782180786133
1729696938919241500,2.401241455078125,0.5571651458740234,-0.0931847095489502,-0.3761179447174072
1729696938929010700,2.4110107421875,0.674138069152832,-0.5311999320983887,-0.33664512634277344
1729696938938780000,2.42077978515625,0.7205533981323242,-0.5853846073150635,-0.7832971811294556
1729696938948549000,2.430549072265625,0.6581830978393555,-0.6595354080200195,-0.48144054412841797
1729696938958318300,2.440318359375,0.7746734619140625,-0.008437752723693848,0.04180407524108887
1729696938968087600,2.450087646484375,1.0196123123168945,0.8869209885597229,0.10501956939697266
1729696938977856800,2.459856689453125,1.4311132431030273,1.1951862573623657,0.14656448364257812
1729696938987626000,2.4696259765625,1.611821174621582,0.6504168510437012,0.8645651340484619
1729696938997395200,2.479395263671875,2.1701717376708984,2.143385648727417,0.9742722511291504
1729696939007164400,2.489164306640625,2.1765050888061523,1.0033891201019287,1.4107563495635986
1729696939016933600,2.49893359375,1.9011049270629883,-0.7093209028244019,1.9910364151000977
1729696939026703000,2.508703125,1.4706850051879883,-1.4987417459487915,2.4770162105560303
1729696939036472300,2.518472412109375,0.6142654418945312,-0.40050625801086426,1.5068047046661377
1729696939046241500,2.528241455078125,-0.16050148010253906,0.7164624929428101,0.07511329650878906
1729696939056010800,2.5380107421875,-0.7216825485229492,0.40404263138771057,-0.5723409652709961
1729696939065780000,2.547780029296875,-1.1752138137817383,0.5355926752090454,-0.5234110355377197
1729696939075549200,2.557549072265625,-1.7203540802001953,0.2869795262813568,-0.2520322799682617
1729696939085318400,2.567318359375,-1.5370674133300781,0.3918793499469757,-0.02340102195739746
1729696939095087600,2.577087646484375,-1.2021150588989258,0.5702373385429382,0.1062324047088623
1729696939104856800,2.58685693359375,-0.8978500366210938,0.3185780644416809,0.48409104347229004
1729696939114626000,2.5966259765625,-0.771296501159668,0.10449281334877014,1.0753147602081299
1729696939124395300,2.606395263671875,-0.7483463287353516,-0.691074013710022,1.3436908721923828
1729696939134164500,2.61616455078125,-0.4656972885131836,-0.2692790925502777,0.469881534576416
1729696939143933700,2.62593359375,-1.2546281814575195,-1.478005290031433,0.6512224674224854
1729696939153703000,2.635702880859375,-1.7660784721374512,-2.003105878829956,1.0103843212127686
1729696939163472100,2.64547216796875,-2.380021095275879,-1.7766473293304443,0.16063284873962402
1729696939173241600,2.65524169921875,-2.8372530937194824,-1.7414759397506714,-0.16543817520141602
1729696939183010800,2.6650107421875,-3.1949143409729004,-1.8316916227340698,-0.3775954246520996
1729696939192780000,2.674780029296875,-3.6971349716186523,-2.1765992641448975,-0.13532495498657227
1729696939202549200,2.68454931640625,-4.26876974105835,-2.224931240081787,-0.4398832321166992
1729696939212318500,2.694318359375,-4.711949348449707,-2.3161096572875977,-0.9166522026062012
1729696939222087700,2.704087646484375,-4.8730058670043945,-2.139770030975342,-1.2265937328338623
1729696939231857000,2.71385693359375,-4.709845542907715,-1.9265353679656982,-1.1511476039886475
1729696939241626000,2.723626220703125,-4.1381425857543945,-1.665395975112915,-0.923621416091919
1729696939251395300,2.733395263671875,-3.5360937118530273,-1.57309091091156,-0.3895115852355957
1729696939261164500,2.74316455078125,-2.9275612831115723,-1.5485612154006958,-0.22240161895751953
1729696939270933800,2.752933837890625,-2.6130008697509766,-1.4988638162612915,-0.19973373413085938
1729696939280703000,2.762702880859375,-2.7414937019348145,-1.4161242246627808,-0.2840292453765869
1729696939290472400,2.772472412109375,-2.9193549156188965,-1.4813166856765747,-0.4984292984008789
1729696939300241700,2.78224169921875,-2.950389862060547,-1.4465522766113281,-0.6015424728393555
1729696939310011000,2.792010986328125,-2.937736988067627,-1.2644968032836914,-0.7128150463104248
1729696939319780000,2.801780029296875,-2.741746425628662,-1.0962445735931396,-0.5962028503417969
1729696939329549300,2.81154931640625,-2.463484764099121,-0.9495985507965088,-0.40511393547058105
1729696939339318500,2.821318603515625,-2.111280918121338,-0.8108751773834229,-0.06697368621826172
1729696939349087700,2.831087646484375,-1.8198962211608887,-0.6442620754241943,0.3470301628112793
1729696939358857000,2.84085693359375,-1.543454647064209,-0.5168135166168213,0.6471409797668457
1729696939368626200,2.850626220703125,-1.2169361114501953,-0.3641369342803955,0.7351131439208984
1729696939378395400,2.8603955078125,-0.9847755432128906,-0.19964122772216797,0.6774828433990479
1729696939388164600,2.87016455078125,-0.9755115509033203,-0.23377227783203125,0.6847810745239258
1729696939397934000,2.87993408203125,-0.9954090118408203,-0.19600987434387207,0.7525224685668945
1729696939407703300,2.889703369140625,-0.9435725212097168,-0.15363192558288574,0.5608510971069336
1729696939417472500,2.899472412109375,-0.727046012878418,0.04668545722961426,0.2915222644805908
1729696939427241700,2.90924169921875,-0.7054791450500488,0.009865999221801758,0.25992393493652344
1729696939437011000,2.919010986328125,-0.8401241302490234,-0.1439371109008789,0.2644920349121094
1729696939446780200,2.9287802734375,-0.955225944519043,-0.05643343925476074,0.06463122367858887
1729696939456549400,2.93854931640625,-0.9374585151672363,0.056291818618774414,-0.27879977226257324
1729696939466318600,2.948318603515625,-0.8832979202270508,0.014535665512084961,-0.5152978897094727
1729696939476087800,2.958087890625,-0.9009523391723633,-0.01314544677734375,-0.7975187301635742
1729696939485857000,2.96785693359375,-1.0121698379516602,0.019719362258911133,-0.989520788192749
1729696939495626200,2.977626220703125,-1.1326627731323242,-0.0005016326904296875,-1.1076302528381348
1729696939505395700,2.987395751953125,-1.1097121238708496,-0.061428070068359375,-0.8469066619873047
1729696939515165000,2.9971650390625,-0.9995594024658203,-0.10273575782775879,-0.36506128311157227
1729696939524934100,3.00693408203125,-0.7300872802734375,0.0070536136627197266,-0.03217267990112305
1729696939534703400,3.016703369140625,-0.3691701889038086,0.12944912910461426,0.24125051498413086
1729696939544472600,3.02647265625,-0.20575904846191406,0.07128190994262695,0.5714786052703857
1729696939554241800,3.03624169921875,-0.1632080078125,0.12867307662963867,0.9108881950378418
1729696939564011000,3.046010986328125,-0.19508743286132812,0.22959661483764648,0.8973643779754639
1729696939573780200,3.0557802734375,-0.31772899627685547,0.26317358016967773,0.7017371654510498
1729696939583549400,3.065549560546875,-0.4836764335632324,0.3347296714782715,0.41118717193603516
1729696939593318700,3.075318603515625,-0.5864458084106445,0.40473222732543945,0.30634260177612305
1729696939603088000,3.085087890625,-0.6909828186035156,0.3497505187988281,0.37334513664245605
1729696939612857000,3.094857177734375,-0.7253580093383789,0.31830739974975586,0.5735197067260742
1729696939622626300,3.104626220703125,-0.7245321273803711,0.22095870971679688,0.6389265060424805
1729696939632395800,3.114395751953125,-0.8050937652587891,0.09018135070800781,0.39240503311157227
1729696939642165000,3.1241650390625,-1.1310348510742188,-0.054842472076416016,0.09305953979492188
1729696939651934200,3.133934326171875,-1.701526165008545,-0.34012579917907715,0.37756967544555664
1729696939661703400,3.143703369140625,-2.204927921295166,-0.6572356224060059,0.6832709312438965
1729696939671472600,3.15347265625,-2.29097318649292,-0.8629274368286133,0.6084270477294922
1729696939681241900,3.163241943359375,-2.2107553482055664,-0.8346397876739502,0.16424155235290527
1729696939691011000,3.173010986328125,-2.1154837608337402,-0.7329308986663818,-0.2470388412475586
1729696939700780300,3.1827802734375,-2.082289695739746,-0.9955182075500488,-0.525810718536377
1729696939710549500,3.192549560546875,-2.209634304046631,-1.2516767978668213,-1.110330581665039
1729696939720318700,3.202318603515625,-2.7742390632629395,-1.472869634628296,-1.840924620628357
1729696939730088200,3.212088134765625,-3.852813243865967,-2.045501708984375,-2.0204122066497803
1729696939739857400,3.221857421875,-5.549213409423828,-3.3809876441955566,-1.2114179134368896
1729696939749626600,3.231626708984375,-7.695532321929932,-4.450008869171143,-0.7388139963150024
1729696939759395800,3.241395751953125,-12.470287322998047,-5.361525535583496,-1.7778874635696411
1729696939769165000,3.2511650390625,-11.48943042755127,-6.288370609283447,-1.204957365989685
1729696939778934300,3.260934326171875,-12.519973754882812,-7.003890037536621,-1.4814895391464233
1729696939788703500,3.270703369140625,-12.305261611938477,-7.957974433898926,-2.081793785095215
1729696939798472700,3.28047265625,-12.298442840576172,-9.178777694702148,-2.0579538345336914
1729696939808242000,3.290241943359375,-11.850358963012695,-10.054193496704102,-1.8054207563400269
1729696939818011100,3.30001123046875,-9.755751609802246,-10.679276466369629,-2.810551643371582
1729696939827780600,3.309780517578125,-7.503776550292969,-10.759871482849121,-3.6833858489990234
1729696939837549800,3.3195498046875,-5.348577499389648,-10.126657485961914,-4.579309463500977
1729696939847319000,3.329319091796875,-2.97977352142334,-9.590240478515625,-4.910035133361816
1729696939857088300,3.339088134765625,-0.932793140411377,-8.639720916748047,-4.641406536102295
1729696939866857500,3.348857421875,0.26308441162109375,-7.352344512939453,-3.1198153495788574
1729696939876626700,3.358626708984375,0.10247278213500977,-6.698307037353516,-1.2395367622375488
1729696939886396000,3.36839599609375,-0.42479658126831055,-6.436738014221191,0.15317153930664062
1729696939896165000,3.3781650390625,-0.9379010200500488,-6.130556106567383,1.3089056015014648
1729696939905934300,3.387934326171875,-1.0590591430664062,-5.915053367614746,2.067412853240967
1729696939915703600,3.39770361328125,-0.14045381546020508,-5.873506546020508,1.2874221801757812
1729696939925472800,3.40747265625,1.055159091949463,-5.378870010375977,-0.6888484954833984
1729696939935242000,3.417241943359375,1.2633056640625,-4.476900100708008,-2.422456741333008
1729696939945011500,3.427011474609375,1.1128973960876465,-3.9003396034240723,-4.195422172546387
1729696939954780700,3.43678076171875,1.1534185409545898,-3.7896413803100586,-5.766899108886719
1729696939964550000,3.4465498046875,1.4228808879852295,-3.4307146072387695,-6.94663667678833
1729696939974319000,3.456319091796875,1.7028424739837646,-2.951565742492676,-7.932950019836426
1729696939984088300,3.46608837890625,2.2312703132629395,-2.5440421104431152,-8.915197372436523
1729696939993857500,3.475857421875,3.1163554191589355,-1.7230205535888672,-9.753280639648438
1729696940003626800,3.485626708984375,3.541975259780884,-0.5419268608093262,-10.452165603637695
1729696940013396000,3.49539599609375,3.6644022464752197,0.5363092422485352,-11.5126314163208
1729696940023165200,3.505165283203125,3.9889888763427734,1.7256746292114258,-13.019214630126953
1729696940032934700,3.5149345703125,4.087418079376221,3.0704903602600098,-13.842287063598633
1729696940042704000,3.524703857421875,4.55900764465332,3.7341771125793457,-14.319544792175293
1729696940052473000,3.53447314453125,4.980904579162598,3.667371988296509,-14.477700233459473
1729696940062242300,3.5442421875,5.0412187576293945,3.8581137657165527,-13.75601577758789
1729696940072011500,3.554011474609375,5.332441329956055,3.893056631088257,-12.530957221984863
1729696940081780700,3.56378076171875,5.859834671020508,3.869196891784668,-11.241086959838867
1729696940091550000,3.573550048828125,6.7196125984191895,4.360962867736816,-10.107128143310547
1729696940101319200,3.583319091796875,7.87258243560791,4.370522499084473,-8.304292678833008
1729696940111088400,3.59308837890625,27.660554885864258,3.0851120948791504,-1.9856410026550293
1729696940120857600,3.602857666015625,15.520149230957031,7.598749160766602,-1.7882533073425293
1729696940130626800,3.612626708984375,5.895151138305664,5.337636947631836,-5.836392402648926
1729696940140396300,3.622396240234375,5.000932693481445,0.4393315315246582,-7.442745208740234
1729696940150165500,3.63216552734375,3.9419164657592773,0.7878503799438477,-5.236992359161377
1729696940159934700,3.641934814453125,3.472592353820801,0.07823657989501953,-2.162698268890381
1729696940169704000,3.651703857421875,2.5968194007873535,0.23801040649414062,-0.9293704032897949
1729696940179473200,3.66147314453125,1.387132167816162,1.015200138092041,-0.35332202911376953
1729696940189242400,3.671242431640625,1.7142622470855713,1.8279478549957275,-0.029046058654785156
1729696940199011600,3.681011474609375,0.6513310670852661,2.6641671657562256,0.6419315338134766
1729696940208780800,3.69078076171875,-1.9562784433364868,1.4849414825439453,1.7559514045715332
1729696940218550000,3.700550048828125,-3.324801445007324,0.7016572952270508,3.487156391143799
1729696940228319500,3.710319580078125,-3.521345615386963,1.8399226665496826,3.3538999557495117
1729696940238088700,3.720088623046875,-2.521698474884033,0.595369815826416,2.45102596282959
1729696940247858000,3.72985791015625,-1.8587348461151123,-0.10903644561767578,2.0450806617736816
1729696940257627100,3.739627197265625,1.309352159500122,-0.6235752105712891,0.36908435821533203
1729696940267396400,3.749396240234375,4.484375476837158,-0.41890430450439453,-0.16230392456054688
1729696940277165600,3.75916552734375,3.8108909130096436,-1.554220199584961,1.1907615661621094
1729696940286934800,3.768934814453125,2.19685697555542,-1.2577013969421387,1.0748944282531738
1729696940296704000,3.7787041015625,1.0631827116012573,-0.2777223587036133,-0.29224681854248047
1729696940306473200,3.78847314453125,1.2631953954696655,0.09380483627319336,-0.4027214050292969
1729696940316242700,3.79824267578125,1.0568171739578247,0.4302961826324463,-0.07866382598876953
1729696940326012000,3.808011962890625,0.4958459734916687,-0.5277094841003418,0.5440425872802734
1729696940335781000,3.817781005859375,1.2576861381530762,-2.197762966156006,1.285226821899414
1729696940345550300,3.82755029296875,2.6512961387634277,-2.4990921020507812,2.280923843383789
1729696940355319600,3.837319580078125,3.527841091156006,-2.5593209266662598,-2.7268571853637695
1729696940365088800,3.8470888671875,0.4652181565761566,-3.979036808013916,-3.9689207077026367
1729696940374858000,3.85685791015625,-3.0821433067321777,-2.804739475250244,-3.771174430847168
1729696940384627200,3.866627197265625,-1.8231137990951538,-4.441165447235107,-10.296125411987305
1729696940394396400,3.876396484375,-1.6012543439865112,-2.8423709869384766,-7.334441184997559
1729696940404165600,3.88616552734375,0.5846217274665833,-1.365015983581543,-7.523784637451172
1729696940413935000,3.89593505859375,2.2902979850769043,-1.7867231369018555,-7.662050247192383
1729696940423704300,3.905704345703125,2.9322519302368164,-1.6417827606201172,-6.327983856201172
1729696940433473500,3.9154736328125,2.2879714965820312,-1.71142578125,-5.037447929382324
1729696940443242800,3.92524267578125,1.380557894706726,-3.061354160308838,-3.648200035095215
1729696940453012000,3.935011962890625,0.6249041557312012,-3.873293399810791,-1.810196876525879
1729696940462781200,3.94478125,2.157984972000122,-5.518406867980957,0.05695343017578125
1729696940472550400,3.95455029296875,3.3271422386169434,-7.304596900939941,0.21534442901611328
1729696940482319600,3.964319580078125,2.1793575286865234,-7.183696269989014,0.2650032043457031
1729696940492089000,3.974089111328125,0.47959959506988525,-5.053142070770264,-0.6101675033569336
1729696940501858300,3.9838583984375,-0.06957173347473145,-3.104686737060547,-1.0486230850219727
1729696940511627500,3.99362744140625,-0.439058780670166,-1.1263747215270996,-0.45021533966064453
1729696940521396700,4.003396728515625,-0.08511543273925781,-0.9957351684570312,0.29308605194091797
1729696940531166000,4.013166015625,-0.43848955631256104,-1.495729684829712,1.0985703468322754
1729696940540935200,4.02293505859375,-1.3747755289077759,-1.9296634197235107,2.6671810150146484
1729696940550704400,4.032704345703125,-2.409459352493286,-2.9114112854003906,3.727971076965332
1729696940560473600,4.0424736328125,-2.72607421875,-3.1518077850341797,4.001290321350098
1729696940570242800,4.052242919921875,-2.415353536605835,-2.9447245597839355,4.094046592712402
1729696940580012000,4.062011962890625,-2.818681478500366,-2.8869216442108154,3.9364500045776367
1729696940589781500,4.071781494140625,-2.616507053375244,-3.268549680709839,3.914487361907959
1729696940599550700,4.08155078125,-1.4529178142547607,-2.8123834133148193,3.460054874420166
1729696940609320000,4.09131982421875,-1.652322769165039,-2.0366082191467285,2.4043846130371094
1729696940619089200,4.101089111328125,-2.410325765609741,-0.9714055061340332,1.8988404273986816
1729696940628858400,4.1108583984375,-2.565234661102295,0.16102910041809082,1.686622142791748
1729696940638627600,4.120627685546875,-2.3500566482543945,0.5567867755889893,2.248812198638916
1729696940648396800,4.130396728515625,-2.3641133308410645,0.3118748664855957,3.0223445892333984
1729696940658166000,4.140166015625,-1.850830078125,-0.35488009452819824,3.507927894592285
1729696940667935500,4.149935546875,-1.7863833904266357,-0.4947936534881592,3.648380756378174
1729696940677704700,4.15970458984375,-1.4656455516815186,-0.8938403129577637,3.5300021171569824
1729696940687474000,4.169473876953125,-1.1430773735046387,-1.0755748748779297,3.3136067390441895
1729696940697243100,4.1792431640625,-1.018836498260498,-1.080998420715332,3.1196889877319336
1729696940707012400,4.189012451171875,-1.0460484027862549,-0.7244665622711182,2.9757461547851562
1729696940716781600,4.198781494140625,-0.7866775989532471,-0.5746378898620605,2.688325881958008
1729696940726550800,4.20855078125,-0.9232053756713867,-0.5647740364074707,2.3296937942504883
1729696940736320000,4.218320068359375,-0.9243643283843994,-0.800407886505127,2.0641536712646484
1729696940746089200,4.228089111328125,-0.8755080699920654,-0.9865574836730957,2.3878746032714844
1729696940755858400,4.2378583984375,-0.6128330230712891,-1.223677635192871,2.755331039428711
1729696940765628000,4.2476279296875,-0.3265371322631836,-1.0894050598144531,2.998159885406494
1729696940775397000,4.257397216796875,-0.1348419189453125,-1.03145170211792,2.7465620040893555
1729696940785166300,4.267166259765625,0.29933881759643555,-0.9237871170043945,2.166375160217285
1729696940794935600,4.276935546875,0.9881727695465088,-0.6811084747314453,1.4861645698547363
1729696940804704800,4.286704833984375,1.482236385345459,-0.5685105323791504,1.0683274269104004
1729696940814474000,4.296473876953125,1.7630970478057861,-0.06091785430908203,0.6880803108215332
1729696940824243200,4.3062431640625,2.025303840637207,0.4795980453491211,0.10516929626464844
1729696940834012400,4.316012451171875,2.154050588607788,0.0795130729675293,0.24245595932006836
1729696940843782000,4.325781982421875,2.1014018058776855,-0.014885425567626953,0.2768850326538086
1729696940853551000,4.335551025390625,1.9715571403503418,0.35477495193481445,0.10429620742797852
1729696940863320300,4.3453203125,2.297976493835449,1.3298821449279785,0.5250544548034668
1729696940873089500,4.355089599609375,2.6474547386169434,1.591064453125,0.24392986297607422
1729696940882858800,4.364858642578125,3.0712201595306396,1.5291976928710938,-0.16524124145507812
1729696940892628000,4.3746279296875,3.041503429412842,2.1753220558166504,-0.059987545013427734
1729696940902397200,4.384397216796875,3.0302622318267822,1.9741296768188477,-0.2700505256652832
1729696940912166400,4.39416650390625,2.9519546031951904,1.714916706085205,-0.47095346450805664
1729696940921936000,4.403935791015625,2.2711610794067383,1.277608871459961,-0.7743706703186035
1729696940931705000,4.413705078125,1.1714670658111572,0.8359417915344238,-1.1422204971313477
1729696940941474300,4.423474365234375,0.04441261291503906,0.1304311752319336,-2.0159549713134766
1729696940951243500,4.433243408203125,-0.7393094301223755,-0.15767335891723633,-3.1725997924804688
1729696940961012700,4.4430126953125,0.34586000442504883,-0.943687915802002,-17.0728816986084
1729696940970782000,4.452781982421875,-2.0577480792999268,-0.8888459205627441,-9.145267486572266
1729696940980551200,4.46255126953125,-2.4293289184570312,-1.2052054405212402,-7.54838752746582
1729696940990320400,4.4723203125,-2.403106689453125,-2.0521130561828613,-5.83053731918335
1729696941000089600,4.482089599609375,-2.1279547214508057,-2.6214098930358887,-4.001225471496582
1729696941009859000,4.491859130859375,-1.5070089101791382,-3.295732021331787,-2.587953567504883
1729696941019628300,4.501628173828125,-0.6560304760932922,-4.149135589599609,-1.6372346878051758
1729696941029397500,4.5113974609375,1.7469943761825562,-4.943553447723389,-5.609018325805664
1729696941039166700,4.521166748046875,1.7190275192260742,-5.4401445388793945,-0.8176693916320801
1729696941048936000,4.53093603515625,2.225022792816162,-5.475470066070557,0.5707287788391113
1729696941058705200,4.540705078125,2.224907159805298,-5.212363243103027,2.176814556121826
1729696941068474400,4.550474365234375,1.784610629081726,-4.080157279968262,3.2380943298339844
1729696941078243800,4.560243896484375,0.4520971179008484,-0.6481542587280273,3.1010897159576416
1729696941088013000,4.570012939453125,-0.8034749031066895,-0.9532485008239746,4.630110263824463
1729696941097782300,4.5797822265625,-1.9304931163787842,-0.9841537475585938,5.151994705200195
1729696941107551500,4.589551513671875,-2.262880802154541,-0.5160517692565918,5.028794765472412
1729696941117320700,4.59932080078125,-2.232778549194336,-0.27335643768310547,5.147168159484863
1729696941127090000,4.60908984375,-2.368877649307251,-0.10953521728515625,5.462841033935547
1729696941136859100,4.618859130859375,-2.2580928802490234,1.6453146934509277,6.729825973510742
1729696941146628400,4.62862841796875,-1.316557765007019,8.908039093017578,7.123990058898926
1729696941156397600,4.6383974609375,-3.2893943786621094,7.182876110076904,4.101179122924805
1729696941166167000,4.6481669921875,-3.5943942070007324,6.960969924926758,3.3550002574920654
1729696941175936300,4.657936279296875,-3.2127742767333984,5.907423973083496,2.9021310806274414
1729696941185705500,4.66770556640625,-3.817716121673584,3.228151321411133,1.943807601928711
1729696941195474700,4.677474609375,-3.4749374389648438,-1.5162858963012695,-1.5413141250610352
1729696941205244000,4.687243896484375,-4.845683574676514,-5.098957538604736,-2.639359951019287
1729696941215013000,4.69701318359375,-4.531195640563965,-8.392887115478516,-3.5895423889160156
1729696941224782300,4.7067822265625,-4.275077819824219,-10.179704666137695,-2.3372750282287598
1729696941234551600,4.716551513671875,-3.5054750442504883,-10.111820220947266,-1.0751795768737793
1729696941244321000,4.726321044921875,-2.7303624153137207,-9.386160850524902,-1.6580510139465332
1729696941254090200,4.73609033203125,-2.3048272132873535,-7.489799976348877,-1.303396224975586
1729696941263859500,4.745859375,-1.3689056634902954,-5.557243824005127,-1.4218835830688477
1729696941273628700,4.755628662109375,0.542816162109375,-2.3961148262023926,-1.9930391311645508
1729696941283398000,4.76539794921875,17.432653427124023,3.706545829772949,-3.614841938018799
1729696941293167000,4.7751669921875,8.076704025268555,4.228034496307373,-2.185459613800049
1729696941302936300,4.784936279296875,2.8961944580078125,3.549436092376709,0.6492834091186523
1729696941312705500,4.79470556640625,1.4830150604248047,0.46856689453125,2.0438601970672607
1729696941322474800,4.804474853515625,1.1045762300491333,0.5809125900268555,3.3405463695526123
1729696941332244200,4.814244140625,0.5949466228485107,1.2395873069763184,3.4379425048828125
1729696941342013400,4.824013427734375,0.2458425760269165,4.2449140548706055,3.197373867034912
1729696941351782700,4.83378271484375,-0.6818578243255615,4.038424015045166,1.8091518878936768
1729696941361552000,4.8435517578125,-1.3909779787063599,4.3021650314331055,1.1407732963562012
1729696941371321000,4.853321044921875,-2.006056308746338,3.8608193397521973,-0.04070734977722168
1729696941381090300,4.86309033203125,-2.357797622680664,3.7301015853881836,-0.4925074577331543
1729696941390859500,4.872859619140625,-2.1080098152160645,2.057448387145996,-0.04667925834655762
1729696941400629000,4.88262890625,-1.6327946186065674,1.4023332595825195,0.8262865543365479
1729696941410398200,4.892398193359375,-1.7513660192489624,0.7376174926757812,1.1795294284820557
1729696941420167400,4.90216748046875,-1.3457505702972412,0.818049430847168,2.346980094909668
1729696941429936600,4.9119365234375,-0.8909103870391846,0.9449882507324219,3.3513448238372803
1729696941439705900,4.921705810546875,-0.4345686435699463,2.0989036560058594,3.4468111991882324
1729696941449475000,4.93147509765625,0.5274500846862793,1.7058372497558594,2.96968150138855
1729696941459244300,4.941244384765625,1.001173496246338,1.498764991760254,2.6997945308685303
1729696941469013500,4.951013427734375,0.8846162557601929,-0.30835914611816406,2.2583167552948
1729696941478782700,4.96078271484375,0.3103301525115967,-2.5087881088256836,2.4089694023132324
1729696941488552200,4.97055224609375,0.019376277923583984,-1.4055967330932617,2.1118359565734863
1729696941498321400,4.9803212890625,0.03198432922363281,-2.1538352966308594,1.9632397890090942
1729696941508090600,4.990090576171875,-0.08041763305664062,-4.657594680786133,1.9794782400131226
1729696941517859800,4.99985986328125,-0.37631726264953613,-5.625191688537598,0.6132502555847168
1729696941527629000,5.009629150390625,-0.21835803985595703,-5.293266296386719,-0.5436587333679199
1729696941537398300,5.019398193359375,-0.4158151149749756,-3.2256345748901367,-0.39783501625061035
1729696941547167500,5.02916748046875,-0.6005604267120361,-1.630772590637207,-0.3224513530731201
1729696941556937000,5.03893701171875,-0.7118828296661377,-2.208615303039551,-0.1463322639465332
1729696941566706200,5.0487060546875,-0.9379854202270508,-1.5229978561401367,-0.16431093215942383
1729696941576475400,5.058475341796875,-1.314049482345581,-1.4105968475341797,-0.6920500993728638
1729696941586244600,5.06824462890625,-1.568259835243225,-0.33617305755615234,-1.368931770324707
1729696941596013800,5.078013916015625,-2.015284538269043,-2.111713409423828,-2.1423540115356445
1729696941605783000,5.087782958984375,-4.085984230041504,-3.782917022705078,-2.8388285636901855
1729696941615552300,5.09755224609375,-2.955352783203125,-2.14862060546875,-3.9067564010620117
1729696941625321500,5.107321533203125,-1.8387737274169922,0.696537971496582,-3.689389228820801
1729696941635090700,5.117090576171875,-1.563226342201233,1.2447309494018555,-3.7866225242614746
1729696941644860200,5.126860107421875,-1.2004485130310059,2.8497533798217773,-3.4182071685791016
1729696941654629400,5.13662939453125,-0.5064026117324829,5.461897373199463,-2.130131244659424
1729696941664398600,5.146398681640625,0.13801011443138123,5.794793128967285,-2.100200891494751
1729696941674167800,5.156167724609375,0.5244834423065186,5.585869789123535,-2.0887389183044434
1729696941683937000,5.16593701171875,0.3611030578613281,3.0292201042175293,-1.9314472675323486
1729696941693706200,5.175706298828125,0.5929303169250488,-13.459794998168945,-0.5919424891471863
1729696941703475500,5.185475341796875,-0.9069839715957642,-19.23388671875,0.5408788919448853
1729696941713245000,5.195244873046875,-1.0415358543395996,-11.234326362609863,-1.6173069477081299
1729696941723014100,5.20501416015625,-0.31006741523742676,-6.699670791625977,-4.2177252769470215
1729696941732783400,5.214783447265625,1.3457810878753662,-3.090447425842285,-3.4554901123046875
1729696941742552600,5.224552490234375,2.156928539276123,-0.5664968490600586,-2.4951114654541016
1729696941752321800,5.23432177734375,2.3136403560638428,0.6385955810546875,-1.3547385931015015
1729696941762091000,5.244091064453125,2.020642042160034,1.5117177963256836,-0.7438439726829529
1729696941771860200,5.253860107421875,1.2841780185699463,2.128204345703125,-0.8418985605239868
1729696941781629400,5.26362939453125,0.6158242225646973,1.8339757919311523,-1.011399269104004
1729696941791398700,5.273398681640625,-0.0022101402282714844,0.9647760391235352,-1.43537437915802
1729696941801168100,5.283168212890625,-0.30292272567749023,0.0277557373046875,-2.114612102508545
1729696941810937300,5.292937255859375,-0.3254845142364502,-0.7179689407348633,-2.6851279735565186
1729696941820706600,5.30270654296875,-0.34828734397888184,-1.2360258102416992,-3.047069549560547
1729696941830475800,5.312475830078125,-0.30957484245300293,-1.3638505935668945,-3.275453567504883
1729696941840245000,5.322244873046875,-0.2103867530822754,-1.1567916870117188,-3.5156002044677734
1729696941850014200,5.33201416015625,-0.06530559062957764,-0.6872091293334961,-3.4945068359375
1729696941859783400,5.341783447265625,0.17140555381774902,-0.04224872589111328,-3.2632529735565186
1729696941869553000,5.351552978515625,0.48639941215515137,0.3309974670410156,-3.193605422973633
1729696941879322000,5.361322021484375,0.7403856515884399,0.4162435531616211,-3.2295548915863037
1729696941889091300,5.37109130859375,0.860825777053833,-0.1348276138305664,-3.282737970352173
1729696941898860500,5.380860595703125,1.190443992614746,-0.5318832397460938,-3.376692295074463
1729696941908629800,5.390629638671875,1.6301088333129883,-0.34850597381591797,-3.7041923999786377
1729696941918399000,5.40039892578125,8.518867492675781,-0.8186674118041992,-6.1410064697265625
1729696941928168200,5.410168212890625,6.219461917877197,-0.3265218734741211,-5.46230411529541
1729696941937937400,5.4199375,4.377923011779785,-1.0231990814208984,-4.7623610496521
1729696941947706600,5.42970654296875,2.2686219215393066,-0.9562149047851562,-3.8429698944091797
1729696941957476000,5.43947607421875,1.9770596027374268,-1.0891733169555664,-3.7329721450805664
1729696941967245300,5.449245361328125,2.1811423301696777,-1.2378931045532227,-3.3956291675567627
1729696941977014500,5.4590146484375,2.470790147781372,-1.1747169494628906,-2.952057123184204
1729696941986783700,5.46878369140625,2.9185283184051514,-1.479538917541504,-2.168229818344116
1729696941996553000,5.478552978515625,3.6178197860717773,-1.6490793228149414,-1.920747995376587
1729696942006322200,5.488322265625,3.801002264022827,-1.5137300491333008,-2.0837337970733643
1729696942016091400,5.49809130859375,3.3340377807617188,-1.166081428527832,-1.9801700115203857
1729696942025860900,5.50786083984375,2.9689531326293945,-0.8372898101806641,-1.7035586833953857
1729696942035630000,5.517630126953125,3.3684375286102295,-0.5943632125854492,-1.7147011756896973
1729696942045399300,5.5273994140625,4.672370910644531,-0.5180940628051758,-1.9508428573608398
1729696942055168500,5.53716845703125,4.267886638641357,-0.5142498016357422,-1.566200852394104
1729696942064937700,5.546937744140625,2.8429882526397705,-0.4821014404296875,-1.1498057842254639
1729696942074707000,5.55670703125,1.5274405479431152,-0.6133146286010742,-0.3451734781265259
1729696942084476200,5.56647607421875,0.6166189908981323,-1.0809593200683594,0.21974064409732819
1729696942094245400,5.576245361328125,0.1568981111049652,-1.8091859817504883,0.6687954664230347
1729696942104014600,5.5860146484375,-0.16150778532028198,-2.306706428527832,1.478346347808838
1729696942113784000,5.5957841796875,-0.5758702754974365,-3.031561851501465,2.064596176147461
1729696942123553300,5.60555322265625,-1.482607126235962,-3.0131349563598633,2.5241551399230957
1729696942133322500,5.615322509765625,-2.575140953063965,-2.427121162414551,2.9698290824890137
1729696942143091700,5.625091796875,-3.5413217544555664,-1.9539775848388672,3.377084255218506
1729696942152861000,5.63486083984375,-3.862959861755371,-1.906630516052246,3.7798428535461426
1729696942162630100,5.644630126953125,-3.019381284713745,-2.1738710403442383,3.5380592346191406
1729696942172399600,5.654399658203125,-1.5649685859680176,-2.17913818359375,2.552579402923584
1729696942182168800,5.6641689453125,-0.9360063076019287,-1.7556581497192383,1.4922783374786377
1729696942191938000,5.67393798828125,-0.7493957281112671,-1.2460918426513672,1.4280953407287598
1729696942201707300,5.683707275390625,-0.828163206577301,-0.6324167251586914,2.1755499839782715
1729696942211476500,5.6934765625,-0.781166136264801,0.10536670684814453,2.7122128009796143
1729696942221245700,5.70324560546875,-0.8469741940498352,0.7811317443847656,3.0267131328582764
1729696942231015000,5.713014892578125,-1.201820731163025,1.3998136520385742,2.8874030113220215
1729696942240784100,5.7227841796875,-1.6658430099487305,1.8584928512573242,2.3792145252227783
1729696942250553300,5.73255322265625,-2.1031482219696045,2.1024580001831055,1.6966506242752075
1729696942260322800,5.74232275390625,-2.3588924407958984,2.2253684997558594,0.975764811038971
1729696942270092000,5.752092041015625,-2.2913658618927,2.365924835205078,0.31200897693634033
1729696942279861200,5.761861328125,-2.159642457962036,2.363959789276123,-0.09557878971099854
1729696942289630500,5.77163037109375,-2.010101318359375,2.405879497528076,-0.1603459119796753
1729696942299399700,5.781399658203125,-1.8283556699752808,2.529489517211914,0.02861917018890381
1729696942309169000,5.7911689453125,-1.603240966796875,2.6461105346679688,0.4255751371383667
1729696942318938000,5.800938232421875,-1.247525930404663,2.8056583404541016,0.894693911075592
1729696942328707600,5.81070751953125,-0.8435566425323486,2.8744077682495117,1.6399348974227905
1729696942338476800,5.820476806640625,-0.6400243043899536,2.922273635864258,2.2415919303894043
1729696942348246000,5.83024609375,-0.5466280579566956,2.9595370292663574,2.8274240493774414
1729696942358015200,5.84001513671875,-0.3376716375350952,2.996347427368164,3.329063653945923
1729696942367784400,5.849784423828125,0.08801543712615967,2.815670967102051,3.754526138305664
1729696942377553700,5.8595537109375,0.5653643608093262,2.5612568855285645,3.921938896179199
1729696942387323000,5.869322998046875,0.6915707588195801,2.3020243644714355,3.753302574157715
1729696942397092000,5.879092041015625,0.48418599367141724,2.128235340118408,3.255432605743408
1729696942406861600,5.888861572265625,0.26959341764450073,2.3278164863586426,2.4557552337646484
1729696942416630800,5.898630859375,-0.04383116960525513,2.5145797729492188,1.5526752471923828
1729696942426400000,5.90839990234375,-0.30473971366882324,2.423154830932617,0.6585317254066467
1729696942436169200,5.918169189453125,-0.3556042015552521,1.7960319519042969,-0.49368536472320557
1729696942445938400,5.9279384765625,-0.007557094097137451,0.7081270217895508,-1.6215685606002808
1729696942455707600,5.937707763671875,0.9238400459289551,-0.7731828689575195,-2.8063220977783203
1729696942465476900,5.947476806640625,2.80584979057312,-2.655088424682617,-4.145238876342773
1729696942475246300,5.957246337890625,5.23427152633667,-4.480999946594238,-5.431540489196777
1729696942485015600,5.967015625,6.52504301071167,-5.6847734451293945,-6.2657036781311035
1729696942494784800,5.97678466796875,7.2650580406188965,-5.603968620300293,-7.280954360961914
1729696942504554000,5.986553955078125,7.651187419891357,-4.248139381408691,-8.01352310180664
1729696942514323200,5.9963232421875,7.394075870513916,-2.4210596084594727,-8.506556510925293
1729696942524092400,6.006092529296875,6.2149200439453125,-1.0749015808105469,-8.400806427001953
1729696942533861600,6.015861572265625,4.29216194152832,-0.27463245391845703,-7.68773889541626
1729696942543630800,6.025630859375,3.078460454940796,-0.9497175216674805,-5.349728584289551
1729696942553400000,6.035400146484375,2.710707664489746,-2.776782989501953,-2.6453206539154053
1729696942563169500,6.04516943359375,1.920506238937378,-4.90692138671875,-0.3393442630767822
1729696942572938800,6.054938720703125,0.679951548576355,-7.420007705688477,1.0300394296646118
1729696942582708000,6.0647080078125,2.7351174354553223,-10.4212007522583,0.11974012851715088
1729696942592477200,6.074477294921875,1.8430824279785156,-11.525927543640137,-1.2049163579940796
1729696942602246400,6.084246337890625,-2.99475359916687,-9.143938064575195,1.7338424921035767
1729696942612015600,6.094015625,-4.866525173187256,-4.807609558105469,5.225198268890381
1729696942621784800,6.103784912109375,-4.167558193206787,1.334660530090332,5.398481369018555
1729696942631554300,6.11355419921875,-2.941943645477295,4.808347225189209,4.711718559265137
1729696942641323500,6.123323486328125,-2.4831953048706055,5.569599628448486,4.967970848083496
1729696942651092700,6.1330927734375,-1.672057867050171,5.316175937652588,5.374722480773926
1729696942660862000,6.142862060546875,0.21381621062755585,5.249801158905029,6.59096097946167
1729696942670631200,6.152631103515625,-0.7753280401229858,3.087787628173828,6.82415246963501
1729696942680400400,6.162400390625,-0.4970707297325134,0.7825412750244141,5.924376010894775
1729696942690169600,6.172169677734375,-0.35315385460853577,-1.3493585586547852,5.5314226150512695
1729696942699938800,6.181938720703125,-0.7541648149490356,-2.1615819931030273,5.8112287521362305
1729696942709708300,6.191708251953125,-1.3405158519744873,-1.7965116500854492,6.224828720092773
1729696942719477500,6.2014775390625,-2.0220608711242676,-0.5774383544921875,6.613381385803223
1729696942729246700,6.211246826171875,-2.6861913204193115,0.2829599380493164,6.30186128616333
1729696942739016000,6.221015869140625,-3.295686960220337,0.6670398712158203,5.626652240753174
1729696942748785200,6.23078515625,-3.034437656402588,0.8371305465698242,4.7713775634765625
1729696942758554400,6.240554443359375,-2.80936861038208,1.0317049026489258,4.2025651931762695
1729696942768323600,6.250323486328125,-2.6833643913269043,1.1215200424194336,3.7979323863983154
1729696942778093000,6.260093017578125,-2.6089978218078613,1.1616716384887695,3.478785514831543
1729696942787862300,6.2698623046875,-2.5218775272369385,0.9539108276367188,3.2040207386016846
1729696942797631500,6.279631591796875,-2.295046091079712,0.47487354278564453,3.0129427909851074
1729696942807400700,6.289400634765625,-2.091996908187866,-0.2247314453125,2.6661338806152344
1729696942817170000,6.299169921875,-1.8390358686447144,-0.6857786178588867,2.320606231689453
1729696942826939100,6.308939208984375,-1.5626063346862793,-0.7721986770629883,2.1508212089538574
1729696942836708400,6.318708251953125,-1.3235085010528564,-0.7422628402709961,1.8341416120529175
1729696942846477600,6.3284775390625,-1.1853001117706299,-0.5266408920288086,1.3823902606964111
1729696942856247000,6.3382470703125,-1.115288496017456,-0.2617626190185547,0.7785081267356873
1729696942866016300,6.348016357421875,-1.0460115671157837,0.004283905029296875,0.10888123512268066
1729696942875785500,6.357785400390625,-0.9786028861999512,0.40978145599365234,-0.4672861695289612
1729696942885554700,6.3675546875,-0.8038017749786377,0.7513542175292969,-1.0390573740005493
1729696942895324000,6.377323974609375,-0.4276615381240845,0.9982109069824219,-1.5037133693695068
1729696942905093000,6.387093017578125,-0.09989678859710693,0.9311017990112305,-1.817908525466919
1729696942914862300,6.3968623046875,0.11678421497344971,0.6683101654052734,-2.020197868347168
1729696942924631800,6.4066318359375,0.3851429224014282,0.4397735595703125,-2.422016143798828
1729696942934401000,6.416401123046875,0.5777537822723389,0.4404325485229492,-2.7377607822418213
1729696942944170200,6.426170166015625,0.7555174827575684,0.4775218963623047,-2.793440341949463
1729696942953939500,6.435939453125,1.10463285446167,0.27351856231689453,-3.0747363567352295
1729696942963708700,6.445708740234375,1.121579885482788,-0.07553291320800781,-3.3462905883789062
1729696942973478000,6.455477783203125,1.4797039031982422,-0.5856113433837891,-3.2841668128967285
1729696942983247000,6.4652470703125,1.6836881637573242,-0.7049493789672852,-3.3966989517211914
1729696942993016300,6.475016357421875,1.976546287536621,-1.1039667129516602,-3.5029947757720947
1729696943002785800,6.484785888671875,2.488398790359497,-1.7041893005371094,-3.608548402786255
1729696943012555000,6.494554931640625,3.7797536849975586,-1.984445571899414,-3.4417495727539062
1729696943022324200,6.50432421875,4.788034915924072,-1.704620361328125,-3.1893255710601807
1729696943032093400,6.514093505859375,5.524147033691406,-1.386688232421875,-2.9999098777770996
1729696943041862700,6.523862548828125,6.197051048278809,-1.1009740829467773,-2.689678907394409
1729696943051631900,6.5336318359375,7.28887939453125,-0.5549831390380859,-2.2017717361450195
1729696943061401000,6.543401123046875,7.06954288482666,-0.12482261657714844,-1.9212265014648438
1729696943071170300,6.55317041015625,5.249118804931641,-0.1526165008544922,-1.93100106716156
1729696943080939800,6.562939697265625,3.7817635536193848,-0.5951986312866211,-1.8887341022491455
1729696943090709000,6.572708984375,2.7952938079833984,-0.4951200485229492,-2.0479822158813477
1729696943100478200,6.582478271484375,2.054818630218506,-0.5832319259643555,-2.120396852493286
1729696943110247400,6.592247314453125,1.5204331874847412,-0.811553955078125,-2.318197727203369
1729696943120016600,6.6020166015625,1.1436684131622314,-1.059800148010254,-2.3725922107696533
1729696943129785900,6.611785888671875,0.9015436172485352,-1.350174903869629,-2.319456100463867
1729696943139555000,6.62155517578125,0.7611609697341919,-1.7541675567626953,-2.3246991634368896
1729696943149324500,6.631324462890625,0.663209080696106,-2.1203413009643555,-2.378276824951172
1729696943159093800,6.64109375,0.5928668975830078,-2.507631301879883,-2.280304193496704
1729696943168863000,6.650863037109375,0.6308317184448242,-2.9366941452026367,-1.9585233926773071
1729696943178632200,6.660632080078125,0.8506975173950195,-3.101090431213379,-1.5097724199295044
1729696943188401400,6.6704013671875,1.3283672332763672,-2.8008604049682617,-1.05327570438385
1729696943198170600,6.680170654296875,3.040069580078125,-2.4252548217773438,-1.089796543121338
1729696943207939800,6.68993994140625,8.422947883605957,-2.670517921447754,-2.322096109390259
1729696943217709000,6.699708984375,12.34506893157959,-2.644075393676758,-3.3490183353424072
1729696943227478500,6.709478515625,10.969646453857422,-2.6300220489501953,-2.998112678527832
1729696943237247700,6.719247802734375,9.212176322937012,-2.720614433288574,-2.5379066467285156
1729696943247017000,6.729016845703125,8.758848190307617,-2.540008544921875,-2.4290707111358643
1729696943256786200,6.7387861328125,8.440008163452148,-2.1233434677124023,-1.8124946355819702
1729696943266555400,6.748555419921875,6.755461692810059,-2.528074264526367,-1.1408065557479858
1729696943276324600,6.75832470703125,3.6288421154022217,-2.965317726135254,-0.5613585114479065
1729696943286093800,6.76809375,1.797668218612671,-3.377049446105957,-0.13579484820365906
1729696943295863300,6.77786328125,0.10745032131671906,-4.04360294342041,0.40120768547058105
1729696943305632500,6.787632568359375,-1.7851094007492065,-4.516658782958984,0.6958117485046387
1729696943315401700,6.797401611328125,-3.679140090942383,-4.76513671875,1.4745750427246094
1729696943325171000,6.8071708984375,-5.168879508972168,-5.45265007019043,2.3828625679016113
1729696943334940200,6.816940185546875,-6.217159271240234,-5.725348472595215,3.37123441696167
1729696943344709400,6.82670947265625,-6.914586067199707,-5.153730392456055,3.559375762939453
1729696943354478600,6.836478515625,-7.1445817947387695,-4.170897483825684,3.3254079818725586
1729696943364247800,6.846247802734375,-6.713327407836914,-3.092532157897949,2.937311887741089
1729696943374017300,6.856017333984375,-5.860140323638916,-2.4306211471557617,2.616898775100708
1729696943383786500,6.865786376953125,-5.0698347091674805,-2.0699806213378906,2.5563998222351074
1729696943393555700,6.8755556640625,-3.5798141956329346,-1.8605213165283203,2.4823412895202637
1729696943403325000,6.885324951171875,-1.6908726692199707,-1.3503684997558594,2.9745821952819824
1729696943413094100,6.89509423828125,-0.22610902786254883,-0.5856685638427734,3.135633945465088
1729696943422863400,6.90486328125,0.4883267879486084,0.03560924530029297,3.2964744567871094
1729696943432632600,6.914632568359375,0.267999529838562,0.6937294006347656,3.5155344009399414
1729696943442402000,6.924402099609375,-0.539919376373291,1.200765609741211,3.6140828132629395
1729696943452171300,6.934171142578125,-1.710572361946106,1.6666240692138672,3.8619613647460938
1729696943461940500,6.9439404296875,-3.0249948501586914,2.073718547821045,4.062379837036133
1729696943471709700,6.953709716796875,-3.356200695037842,2.47737979888916,4.198341369628906
1729696943481479000,6.96347900390625,-3.2868146896362305,2.757645606994629,4.453486442565918
1729696943491248000,6.973248046875,-3.2959117889404297,3.1081881523132324,4.049493312835693
1729696943501017300,6.983017333984375,-3.175666570663452,3.380873680114746,3.276974678039551
1729696943510786600,6.99278662109375,-3.0849273204803467,3.293076515197754,2.406198024749756
1729696943520556000,7.00255615234375,-3.2862398624420166,3.112415313720703,1.6621012687683105
1729696943530325200,7.0123251953125,-3.5901551246643066,3.039794921875,1.3627058267593384
1729696943540094500,7.022094482421875,-3.811838150024414,2.980192184448242,1.525512933731079
1729696943549863700,7.03186376953125,-3.8601951599121094,3.108008861541748,1.842765212059021
1729696943559633000,7.0416328125,-3.765238046646118,3.267914295196533,2.340287685394287
1729696943569402000,7.051402099609375,-3.7726526260375977,3.3969388008117676,2.9201807975769043
1729696943579171300,7.06117138671875,-3.693364143371582,3.9618639945983887,3.118873357772827
1729696943588940800,7.07094091796875,-3.5506832599639893,4.474094390869141,3.0531563758850098
1729696943598710000,7.0807099609375,-3.3309333324432373,4.92317533493042,2.757530689239502
1729696943608479200,7.090479248046875,-3.1265954971313477,5.134507656097412,2.589679718017578
1729696943618248400,7.10024853515625,-2.7960572242736816,5.1103339195251465,2.5090134143829346
1729696943628017700,7.110017578125,-2.344442367553711,4.747204780578613,2.299428939819336
1729696943637787000,7.119786865234375,-1.522787094116211,3.7704625129699707,2.2228312492370605
1729696943647556000,7.12955615234375,0.5365927219390869,2.380615234375,1.8910620212554932
1729696943657325300,7.1393251953125,2.9555883407592773,0.2222118377685547,0.8411144614219666
1729696943667094800,7.1490947265625,7.180022239685059,-2.9753236770629883,-0.9497998356819153
1729696943676864000,7.158864013671875,15.553887367248535,-7.116501808166504,-5.710299491882324
1729696943686633200,7.16863330078125,14.585891723632812,-9.654898643493652,-8.692840576171875
1729696943696402400,7.17840234375,10.666980743408203,-9.881733894348145,-7.381022930145264
1729696943706171600,7.188171630859375,7.966350078582764,-7.781180381774902,-5.840603351593018
1729696943715940900,7.19794091796875,6.697328567504883,-4.629480361938477,-4.450771331787109
1729696943725710000,7.2077099609375,4.882377624511719,-2.1224374771118164,-2.6470041275024414
1729696943735479600,7.2174794921875,1.9460937976837158,-0.33640575408935547,-1.6496869325637817
1729696943745248800,7.227248779296875,-0.17975425720214844,1.5226874351501465,-1.9818251132965088
1729696943755018000,7.23701806640625,-1.887277603149414,2.9751839637756348,-2.112558603286743
1729696943764787200,7.246787109375,-2.929298162460327,4.381978511810303,-1.850563406944275
1729696943774556400,7.256556396484375,-3.0632259845733643,5.265190124511719,-1.1617016792297363
1729696943784325600,7.26632568359375,-2.408942699432373,4.633566856384277,-0.23154425621032715
1729696943794094800,7.2760947265625,-2.042853832244873,2.1846275329589844,0.36610591411590576
1729696943803864000,7.285864013671875,-2.955350637435913,-1.8093595504760742,0.49202901124954224
1729696943813633500,7.295633544921875,-4.243818759918213,-7.034994125366211,0.007214665412902832
1729696943823402800,7.30540283203125,10.281290054321289,-13.657950401306152,-4.491359710693359
1729696943833172000,7.315171875,3.3595662117004395,-16.519853591918945,-3.7937076091766357
1729696943842941200,7.324941162109375,5.905613899230957,-11.059563636779785,-2.2136173248291016
1729696943852710400,7.33471044921875,5.840116500854492,-3.5645341873168945,4.5730881690979
1729696943862479600,7.344479736328125,-0.010531425476074219,1.7400174140930176,8.97175407409668
1729696943872248800,7.354248779296875,-5.830039978027344,4.588139533996582,8.503883361816406
1729696943882018300,7.364018310546875,-6.354355812072754,5.084240436553955,10.163761138916016
1729696943891787500,7.37378759765625,-4.248587131500244,5.450434684753418,10.223007202148438
1729696943901556700,7.383556640625,-4.889460563659668,4.207995891571045,9.11785888671875
1729696943911326000,7.393325927734375,-5.999356269836426,2.2368221282958984,6.937511444091797
1729696943921095200,7.40309521484375,-6.066013336181641,0.3330717086791992,5.45766019821167
1729696943930864400,7.412864501953125,-5.779694557189941,-1.4127254486083984,4.518714904785156
1729696943940633600,7.422633544921875,-5.575039863586426,-1.3873023986816406,3.8960142135620117
1729696943950402800,7.43240283203125,-5.587985038757324,-0.2574119567871094,3.707246780395508
1729696943960172300,7.44217236328125,-5.548017501831055,0.25787830352783203,4.101946830749512
1729696943969941500,7.45194140625,-5.093269348144531,0.21338844299316406,4.66602897644043
1729696943979710700,7.461710693359375,-4.60045051574707,0.3142719268798828,4.577582836151123
1729696943989480000,7.47147998046875,-1.4371522665023804,1.657674789428711,-1.3274264335632324
1729696943999249200,7.481249267578125,-4.571171760559082,-0.8579092025756836,3.638991117477417
1729696944009018400,7.491018310546875,-4.22830057144165,-0.11179828643798828,2.0120580196380615
1729696944018787600,7.50078759765625,-4.143065452575684,-0.4317283630371094,1.4233239889144897
1729696944028557000,7.51055712890625,-4.2737040519714355,-1.331003189086914,1.1575015783309937
1729696944038326300,7.520326171875,-4.3907976150512695,-2.085637092590332,0.9465479254722595
1729696944048095500,7.530095458984375,-4.241908550262451,-2.3397960662841797,0.6291599273681641
1729696944057864700,7.53986474609375,-3.740908622741699,-2.2219886779785156,0.2218199372291565
1729696944067634000,7.549634033203125,-3.1136951446533203,-1.8678970336914062,-0.3115711808204651
1729696944077403100,7.559403076171875,-2.630411386489868,-1.2192926406860352,-0.761381983757019
1729696944087172400,7.56917236328125,-2.1522414684295654,-0.2130889892578125,-1.2462302446365356
1729696944096941600,7.578941650390625,-1.7504355907440186,0.5853805541992188,-1.480804204940796
1729696944106711000,7.5887109375,-1.3314096927642822,1.0305843353271484,-1.7206348180770874
1729696944116480300,7.598480224609375,-1.0284535884857178,1.1352310180664062,-1.835821270942688
1729696944126249500,7.60824951171875,-0.709993302822113,1.6282730102539062,-2.288210868835449
1729696944136018700,7.618018798828125,-0.43499964475631714,1.536240577697754,-2.530783176422119
1729696944145788000,7.627787841796875,-0.2357950210571289,1.3065595626831055,-3.0330440998077393
1729696944155557000,7.63755712890625,-0.056761741638183594,0.6856470108032227,-3.4649534225463867
1729696944165326300,7.647326416015625,0.10755479335784912,-0.047989845275878906,-3.6578116416931152
1729696944175095800,7.657095703125,0.9621425867080688,-0.12933826446533203,-3.8058884143829346
1729696944184865000,7.666864990234375,2.3840925693511963,0.03349876403808594,-3.661017894744873
1729696944194634200,7.67663427734375,3.547212600708008,0.0972433090209961,-3.1096138954162598
1729696944204403500,7.686403564453125,4.265254020690918,0.16045761108398438,-2.679266929626465
1729696944214172700,7.696172607421875,4.807215213775635,0.17261314392089844,-2.3917036056518555
1729696944223942000,7.70594189453125,5.178454875946045,0.1298971176147461,-2.054494619369507
1729696944233711000,7.715711181640625,5.517726898193359,0.07305049896240234,-1.786420464515686
1729696944243480300,7.725480224609375,5.8306684494018555,-0.2098064422607422,-1.9658721685409546
1729696944253249500,7.73524951171875,5.635912895202637,-0.6472463607788086,-2.013165235519409
1729696944263019000,7.74501904296875,4.9078803062438965,-0.8190135955810547,-2.2120168209075928
1729696944272788200,7.754788330078125,3.8383796215057373,-1.0283393859863281,-2.523500442504883
1729696944282557400,7.764557373046875,2.7619519233703613,-1.3000736236572266,-2.931603193283081
1729696944292326700,7.77432666015625,1.988822102546692,-1.6686687469482422,-3.192410469055176
1729696944302096000,7.784095947265625,1.5298261642456055,-2.03572940826416,-3.2553584575653076
1729696944311865000,7.793864990234375,1.4955260753631592,-1.7285242080688477,-3.1454362869262695
1729696944321634600,7.803634521484375,1.8305011987686157,-1.2673511505126953,-2.7632699012756348
1729696944331403800,7.81340380859375,2.259934425354004,-0.28345203399658203,-2.3528170585632324
1729696944341173000,7.823173095703125,2.44167423248291,0.39129161834716797,-2.1509523391723633
1729696944350942200,7.832942138671875,2.385287046432495,0.47486305236816406,-2.4118428230285645
1729696944360711400,7.84271142578125,2.3056728839874268,0.27485084533691406,-2.637636423110962
1729696944370480600,7.852480712890625,2.2245538234710693,-0.44573497772216797,-2.866853713989258
1729696944380249900,7.862249755859375,1.8897221088409424,-1.488083839416504,-3.123353958129883
1729696944390019000,7.87201904296875,1.3244876861572266,-2.4382171630859375,-3.3139638900756836
1729696944399788300,7.881788330078125,0.9022585153579712,-3.167813301086426,-3.4758875370025635
1729696944409557800,7.891557861328125,0.7300976514816284,-3.785400390625,-3.86981201171875
1729696944419327000,7.901326904296875,1.0208232402801514,-4.108016014099121,-4.275356292724609
1729696944429096200,7.91109619140625,2.379577398300171,-3.8210372924804688,-4.116325378417969
1729696944438865400,7.920865478515625,4.3545026779174805,-3.367185592651367,-3.835879325866699
1729696944448634600,7.930634521484375,5.895774841308594,-3.0678224563598633,-3.775336980819702
1729696944458403800,7.94040380859375,12.924068450927734,-3.0740432739257812,-4.632807731628418
1729696944468173300,7.95017333984375,13.211684226989746,-3.3104934692382812,-5.407600402832031
1729696944477942500,7.959942626953125,9.457548141479492,-3.7475032806396484,-4.48361873626709
1729696944487711700,7.969711669921875,7.020459175109863,-3.9610280990600586,-3.6394176483154297
1729696944497481000,7.97948095703125,4.850119590759277,-3.5251407623291016,-2.553395986557007
1729696944507250200,7.989250244140625,3.888944149017334,-2.886556625366211,-1.7453854084014893
1729696944517019400,7.999019287109375,2.369657278060913,-2.223080635070801,-1.8642600774765015
1729696944526788600,8.00878857421875,0.5929089784622192,-2.7253589630126953,-1.5492427349090576
1729696944536557800,8.018557861328125,-0.7643227577209473,-3.4899396896362305,-0.8940439224243164
1729696944546327000,8.0283271484375,-1.628495693206787,-3.9074745178222656,0.5108907222747803
1729696944556096500,8.038096435546874,-2.5843801498413086,-5.127005577087402,1.9351457357406616
1729696944565865700,8.04786572265625,-3.743060350418091,-6.101097106933594,3.3187384605407715
1729696944575635000,8.057635009765624,-4.521598815917969,-7.297726631164551,4.615318298339844
1729696944585404200,8.067404052734375,-5.139425277709961,-7.9249773025512695,5.442224025726318
1729696944595173400,8.07717333984375,-5.436261177062988,-6.696910858154297,5.475628852844238
1729696944604942600,8.086942626953125,-4.9769086837768555,-3.957362174987793,4.658130168914795
1729696944614711800,8.0967119140625,-2.9960436820983887,-2.1881227493286133,0.32813048362731934
1729696944624481300,8.106481201171874,-4.283927917480469,-1.3629570007324219,4.233598709106445
1729696944634250500,8.11625048828125,-4.186315536499023,-0.8617706298828125,4.085521697998047
1729696944644019700,8.126019775390626,-3.990370750427246,-0.06219291687011719,4.0434112548828125
1729696944653789000,8.135788818359375,-3.7654175758361816,0.7498693466186523,3.69521164894104
1729696944663558100,8.14555810546875,-4.349027633666992,1.5740461349487305,3.0825607776641846
1729696944673327400,8.155327392578124,-5.116855144500732,1.8319549560546875,2.5573978424072266
1729696944683096600,8.1650966796875,-5.627902030944824,1.9912333488464355,1.7535580396652222
1729696944692865800,8.17486572265625,-5.743610382080078,2.1318511962890625,1.238450050354004
1729696944702635300,8.18463525390625,-5.54670524597168,2.259031295776367,0.5110956430435181
1729696944712404500,8.194404541015626,-4.8183794021606445,2.5946388244628906,0.3082427978515625
1729696944722173700,8.204173583984375,-4.238259315490723,2.6193809509277344,0.2572876214981079
1729696944731943000,8.21394287109375,-3.983034372329712,2.61295747756958,0.3961303234100342
1729696944741712100,8.223712158203124,-3.472011089324951,2.510664939880371,0.9539340734481812
1729696944751481300,8.2334814453125,-3.447356700897217,2.534346580505371,1.9814403057098389
1729696944761250600,8.24325048828125,-3.722031593322754,2.671566963195801,2.9032769203186035
1729696944771020000,8.25302001953125,-4.054039478302002,2.894529342651367,3.37945818901062
1729696944780789200,8.262789306640625,-4.367201328277588,3.069366455078125,3.7404727935791016
1729696944790558500,8.272558349609374,-4.626043796539307,3.2101759910583496,3.9280059337615967
1729696944800327700,8.28232763671875,-4.738101959228516,3.4504880905151367,3.871121883392334
1729696944810097000,8.292096923828124,-4.701692581176758,3.6950316429138184,3.8060245513916016
1729696944819866000,8.3018662109375,-4.771914958953857,3.998990535736084,3.829467296600342
1729696944829635300,8.31163525390625,-4.881096363067627,4.51254415512085,3.9613656997680664
1729696944839404500,8.321404541015625,-4.728657245635986,4.996164321899414,3.877512216567993
1729696944849174000,8.331174072265625,-4.416270732879639,5.390990257263184,3.883357524871826
1729696944858943200,8.340943115234374,-3.701667308807373,5.420609474182129,3.3321011066436768
1729696944868712400,8.35071240234375,-4.017361164093018,4.95209264755249,4.28055477142334
1729696944878481700,8.360481689453126,-2.7659382820129395,3.997382164001465,4.233283042907715
1729696944888251000,8.3702509765625,0.41680097579956055,2.2320199012756348,4.541276454925537
1729696944898020000,8.38002001953125,4.7255449295043945,-0.28447628021240234,4.027491092681885
1729696944907789300,8.389789306640624,14.676281929016113,-3.5589799880981445,1.5165395736694336
1729696944917558800,8.399558837890625,27.741130828857422,-8.544997215270996,-5.472582817077637
1729696944927328000,8.409327880859376,16.858238220214844,-12.764400482177734,-6.3148064613342285
1729696944937097200,8.41909716796875,8.349637985229492,-11.929061889648438,-4.9955058097839355
1729696944946866400,8.428866455078126,4.228949546813965,-8.820576667785645,-3.9601993560791016
1729696944956635600,8.4386357421875,3.796980381011963,-4.849667549133301,-4.117815017700195
1729696944966404900,8.44840478515625,2.52595853805542,-2.560235023498535,-2.3545565605163574
1729696944976174000,8.458174072265624,0.4116847515106201,0.1849384307861328,-1.8160873651504517
1729696944985943300,8.467943359375,-0.8649924993515015,2.9650745391845703,-2.3005378246307373
1729696944995712800,8.477712646484376,-1.4604276418685913,5.201703071594238,-2.005458354949951
1729696945005482000,8.48748193359375,-1.6406569480895996,6.877386093139648,-1.0904935598373413
1729696945015251200,8.497251220703125,-1.2333853244781494,7.137463092803955,0.023773908615112305
1729696945025020400,8.5070205078125,-1.1167693138122559,4.592733860015869,1.1643215417861938
1729696945034789600,8.51678955078125,-3.4755990505218506,-0.3013315200805664,2.2199432849884033
1729696945044558800,8.526558837890626,-5.21829891204834,-6.760720252990723,2.733447313308716
1729696945054328000,8.536328125,-2.533144235610962,-13.542730331420898,0.5334774255752563
1729696945064097500,8.54609765625,3.89079213142395,-16.376047134399414,-2.6947779655456543
1729696945073866800,8.55586669921875,8.767818450927734,-12.914327621459961,-2.5074214935302734
1729696945083636000,8.565635986328125,5.7052836418151855,-7.370326995849609,1.7393194437026978
1729696945093405200,8.5754052734375,-2.801034927368164,-1.1348323822021484,5.7137064933776855
1729696945103174400,8.58517431640625,-5.805787086486816,2.7872276306152344,6.427036285400391
1729696945112943600,8.594943603515626,-6.829808712005615,4.5819196701049805,7.205010414123535
1729696945122712800,8.604712890625,-5.787261009216309,4.984637260437012,7.1861982345581055
1729696945132482000,8.61448193359375,-4.7642059326171875,4.328683853149414,5.650122165679932
1729696945142251500,8.62425146484375,-3.7559895515441895,2.3991761207580566,4.902100086212158
1729696945152020700,8.634020751953125,-3.723414659500122,1.3385591506958008,4.641717433929443
1729696945161790000,8.6437900390625,-4.298748970031738,0.5492715835571289,5.0117011070251465
1729696945171559200,8.65355908203125,-5.147154808044434,0.12622642517089844,5.159792900085449
1729696945181328400,8.663328369140626,-5.716405391693115,-0.18520164489746094,5.4566802978515625
1729696945191097600,8.67309765625,-5.791521072387695,-0.2555274963378906,5.711710453033447
1729696945200866800,8.68286669921875,-5.611270904541016,-0.35028934478759766,5.950657844543457
1729696945210636300,8.69263623046875,-5.258492469787598,-0.1662302017211914,5.619109630584717
1729696945220405500,8.702405517578125,-4.28317403793335,0.4701986312866211,3.2636256217956543
1729696945230174700,8.7121748046875,-4.868083953857422,-0.4377288818359375,5.621814727783203
1729696945239944000,8.72194384765625,-4.2194366455078125,0.5269546508789062,4.463724136352539
1729696945249713200,8.731713134765625,-3.7572085857391357,0.6876688003540039,3.848158836364746
1729696945259482400,8.741482421875,-3.4905996322631836,0.5549907684326172,3.2726778984069824
1729696945269251600,8.75125146484375,-3.1226694583892822,0.33083152770996094,2.062260627746582
1729696945279020800,8.761020751953126,-2.7775628566741943,0.1420269012451172,1.7396996021270752
1729696945288790300,8.770790283203125,-2.4266796112060547,0.041316986083984375,0.9362286925315857
1729696945298559500,8.7805595703125,-1.93289053440094,-0.12960529327392578,0.3635120391845703
1729696945308328700,8.79032861328125,-1.4696619510650635,0.00128173828125,-0.2188073992729187
1729696945318098000,8.800097900390625,-1.10353422164917,0.0774078369140625,-0.7723555564880371
1729696945327867100,8.8098671875,-0.7714662551879883,0.21355915069580078,-1.35097074508667
1729696945337636400,8.81963623046875,-0.5177976489067078,0.29761600494384766,-1.928297519683838
1729696945347405600,8.829405517578126,-0.2703160047531128,0.23673629760742188,-1.9850932359695435
1729696945357174800,8.8391748046875,-0.12900859117507935,0.35102367401123047,-2.1870925426483154
1729696945366944300,8.8489443359375,-0.003393411636352539,0.37664794921875,-2.2761306762695312
1729696945376713500,8.85871337890625,0.18099302053451538,0.43680381774902344,-2.3375630378723145
1729696945386482700,8.868482666015625,0.3984305262565613,0.46073150634765625,-2.593684196472168
1729696945396252000,8.878251953125,0.7240805625915527,-0.04596138000488281,-2.8893771171569824
1729696945406021000,8.888021240234375,0.638155460357666,-1.297520637512207,-3.5849130153656006
1729696945415790300,8.897790283203125,2.9485292434692383,-2.0778446197509766,-4.999474048614502
1729696945425559600,8.9075595703125,5.378971099853516,-2.3605308532714844,-5.783166408538818
1729696945435329000,8.9173291015625,7.031773567199707,-2.4802932739257812,-6.0435404777526855
1729696945445098200,8.92709814453125,8.110645294189453,-1.7281827926635742,-5.834808826446533
1729696945454867500,8.936867431640625,8.0271635055542,-0.9403467178344727,-4.489777088165283
1729696945464636700,8.94663671875,5.879665374755859,0.018930435180664062,-3.6964845657348633
1729696945474406000,8.956406005859375,4.141768455505371,0.11409568786621094,-3.054178237915039
1729696945484175000,8.966175048828125,2.850893497467041,0.2474374771118164,-2.486786365509033
1729696945493944300,8.9759443359375,1.9276745319366455,0.27530765533447266,-2.342787742614746
1729696945503713500,8.985713623046875,1.3727535009384155,0.21524810791015625,-2.5302348136901855
1729696945513483000,8.99548291015625,0.9642581939697266,0.02398681640625,-2.7491226196289062
1729696945523252200,9.005252197265625,0.6903442144393921,-0.1721649169921875,-2.900214672088623
1729696945533021400,9.015021484375,0.6096644401550293,-0.36605072021484375,-2.888080358505249
1729696945542790700,9.024790771484374,0.8013718128204346,-0.7737827301025391,-2.769458293914795
1729696945552559900,9.034559814453125,1.1925071477890015,-1.1513500213623047,-2.6902029514312744
1729696945562329000,9.0443291015625,1.5296387672424316,-1.3843402862548828,-2.5666110515594482
1729696945572098300,9.054098388671875,1.7844479084014893,-1.6455230712890625,-2.5527498722076416
1729696945581867800,9.06386767578125,1.9053065776824951,-1.8928499221801758,-2.643385887145996
1729696945591637000,9.073636962890625,1.8782622814178467,-2.104389190673828,-2.893435001373291
1729696945601406200,9.08340625,1.7413127422332764,-2.586681365966797,-3.0962986946105957
1729696945611175400,9.093175537109374,1.458540678024292,-2.9038047790527344,-3.249879837036133
1729696945620944600,9.102944580078125,1.4634320735931396,-2.9319562911987305,-3.166346788406372
1729696945630713900,9.1127138671875,2.9211249351501465,-2.775045394897461,-3.1485750675201416
1729696945640483000,9.122483154296875,5.1683197021484375,-2.790196418762207,-2.9883151054382324
1729696945650252300,9.132252197265625,6.96973180770874,-2.718520164489746,-2.8144595623016357
1729696945660021800,9.142021728515624,14.429987907409668,-2.3045902252197266,-3.70620059967041
1729696945669791000,9.151791015625,15.886482238769531,-1.7828130722045898,-5.231542110443115
1729696945679560200,9.161560302734374,9.07008171081543,-1.7848033905029297,-4.533995628356934
1729696945689329400,9.171329345703125,4.061427593231201,-2.281741142272949,-3.342473030090332
1729696945699098600,9.1810986328125,1.5650758743286133,-1.9180240631103516,-1.698607087135315
1729696945708867800,9.190867919921875,0.6882728934288025,-1.5160388946533203,-1.8500581979751587
1729696945718637000,9.200636962890625,1.3336032629013062,-1.9159469604492188,-3.2406387329101562
1729696945728406500,9.210406494140624,1.7507143020629883,-3.4033737182617188,-4.562862396240234
1729696945738175700,9.22017578125,1.1654157638549805,-4.453007698059082,-4.070244789123535
1729696945747945000,9.229945068359376,0.3935944437980652,-4.963743209838867,-2.1927199363708496
1729696945757714200,9.239714111328125,-1.1029165983200073,-5.564026832580566,-0.6271079778671265
1729696945767483400,9.2494833984375,-2.8189587593078613,-6.095290184020996,0.8448098301887512
1729696945777252600,9.259252685546874,-4.26320219039917,-6.781002044677734,2.3697071075439453
1729696945787021800,9.269021728515625,-5.38920783996582,-7.219046592712402,3.644904613494873
1729696945796791000,9.278791015625,-5.885554313659668,-6.968910217285156,4.507720947265625
1729696945806560500,9.288560546875,-6.031455993652344,-5.269217491149902,4.356150150299072
1729696945816329700,9.298329833984376,-5.842395305633545,-2.9749441146850586,3.4237585067749023
1729696945826099000,9.308098876953125,-5.408598899841309,-1.710855484008789,2.513023853302002
1729696945835868200,9.3178681640625,-5.220685005187988,-1.554722785949707,3.1839218139648438
1729696945845637400,9.327637451171874,-4.6030778884887695,-1.0963411331176758,3.5428924560546875
1729696945855406600,9.337406494140625,-3.8941843509674072,-0.3427133560180664,3.3728702068328857
1729696945865176000,9.347176025390626,-3.6583986282348633,0.5844106674194336,3.1220922470092773
1729696945874945300,9.3569453125,-3.8311238288879395,1.3499774932861328,2.897486686706543
1729696945884714500,9.366714599609375,-4.370352268218994,1.6532506942749023,2.802171468734741
1729696945894483700,9.376483642578124,-4.639514923095703,1.8470263481140137,2.4138290882110596
1729696945904253000,9.3862529296875,-4.319087505340576,2.0386085510253906,2.1009743213653564
1729696945914022100,9.396022216796876,-4.0035858154296875,2.4862942695617676,1.8558024168014526
1729696945923791400,9.405791259765625,-3.690075397491455,3.0170469284057617,1.7954987287521362
1729696945933560600,9.415560546875,-3.832942485809326,3.403538703918457,1.7239623069763184
1729696945943329800,9.425329833984375,-4.034939765930176,3.5532875061035156,1.499922752380371
1729696945953099300,9.435099365234375,-3.9516263008117676,3.4208173751831055,1.4152621030807495
1729696945962868500,9.444868408203124,-3.7206854820251465,3.322856903076172,1.6448514461517334
1729696945972637700,9.4546376953125,-3.771416664123535,3.391016960144043,2.3323638439178467
1729696945982407000,9.464406982421876,-3.9054861068725586,3.453740119934082,3.1548099517822266
1729696945992176000,9.474176025390625,-3.8536646366119385,3.470968723297119,3.892320156097412
1729696946001945300,9.4839453125,-3.535374641418457,3.4497580528259277,4.2319111824035645
1729696946011714800,9.49371484375,-3.4130077362060547,3.5403409004211426,4.325045108795166
1729696946021484000,9.503484130859375,-3.422666072845459,3.7136359214782715,4.425528049468994
1729696946031253200,9.513253173828126,-3.539604902267456,3.943122386932373,4.517563819885254
1729696946041022500,9.5230224609375,-3.5713295936584473,4.243240833282471,4.654171466827393
1729696946050791700,9.532791748046876,-3.182107448577881,4.544432163238525,4.589996337890625
1729696946060561000,9.542560791015624,-2.757023334503174,4.557815074920654,4.69874906539917
1729696946070330000,9.552330078125,-2.369442939758301,4.377061367034912,4.501291275024414
1729696946080099300,9.562099365234374,-1.4428467750549316,3.8620238304138184,4.258078098297119
1729696946089868800,9.571868896484375,0.7477271556854248,2.606630325317383,3.990792751312256
1729696946099638000,9.581637939453126,3.416961669921875,0.8043642044067383,3.018803119659424
1729696946109407200,9.5914072265625,7.524257183074951,-1.4400672912597656,1.0121185779571533
1729696946119176400,9.601176513671875,15.032241821289062,-4.585442543029785,-2.450268268585205
1729696946128945700,9.610945556640624,14.811102867126465,-8.095464706420898,-6.9358296394348145
1729696946138715000,9.62071484375,10.221597671508789,-9.811211585998535,-8.048498153686523
1729696946148484000,9.630484130859376,5.493802547454834,-9.026690483093262,-7.748803615570068
1729696946158253600,9.640253662109375,4.756433010101318,-6.214046478271484,-8.147298812866211
1729696946168022800,9.650022705078126,5.503671169281006,-4.8837385177612305,-5.273388862609863
1729696946177792000,9.6597919921875,3.2392873764038086,-2.6408796310424805,-2.780857563018799
1729696946187561200,9.669561279296875,1.4934110641479492,0.7059221267700195,-2.7963929176330566
1729696946197330400,9.679330322265624,0.038365840911865234,2.440878391265869,-2.421572685241699
1729696946207099600,9.689099609375,-1.0986003875732422,3.4658193588256836,-1.9489442110061646
1729696946216868900,9.698868896484376,-1.3644155263900757,3.990889072418213,-1.1201403141021729
1729696946226638000,9.70863818359375,-0.8743663430213928,2.941103458404541,0.3102375268936157
1729696946236407600,9.718407470703125,-0.5375316143035889,0.031981468200683594,1.457409143447876
1729696946246176800,9.7281767578125,-0.4398287534713745,-3.8566064834594727,1.4479329586029053
1729696946255946000,9.737946044921875,3.3339667320251465,-8.77120304107666,-0.8051761388778687
1729696946265715200,9.747715087890626,0.43086981773376465,-12.089407920837402,-2.3348288536071777
1729696946275484400,9.757484375,-3.1447246074676514,-9.286164283752441,-1.1936016082763672
1729696946285253600,9.767253662109376,-1.4700709581375122,-5.629794120788574,1.8546912670135498
1729696946295023000,9.777023193359375,-1.0846506357192993,-1.3800783157348633,4.757272720336914
1729696946304792300,9.786792236328125,-4.242960453033447,2.8168230056762695,4.952024936676025
1729696946314561500,9.7965615234375,-4.3893141746521,4.302247047424316,5.52479887008667
1729696946324330800,9.806330810546875,-3.891407012939453,4.390101909637451,6.605128288269043
1729696946334100000,9.816099853515626,-3.3081698417663574,3.733553409576416,7.220994472503662
1729696946343869200,9.825869140625,-3.9522719383239746,2.3804264068603516,6.845737934112549
1729696946353638400,9.835638427734375,-3.4803504943847656,0.7789573669433594,6.361699104309082
1729696946363407600,9.84540771484375,-2.851548671722412,-1.728215217590332,5.457317352294922
1729696946373176800,9.8551767578125,-2.3966829776763916,-2.1167478561401367,4.589996814727783
1729696946382946300,9.8649462890625,-2.8879263401031494,-1.1901025772094727,4.658344268798828
1729696946392715500,9.874715576171875,-4.063414573669434,-0.5091142654418945,5.6474690437316895
1729696946402484700,9.884484619140625,-5.175240993499756,0.1920337677001953,5.649451732635498
1729696946412254000,9.89425390625,-5.353976726531982,0.4627561569213867,5.251422882080078
1729696946422023200,9.904023193359375,-4.95470666885376,0.5322332382202148,4.870068550109863
1729696946431792400,9.91379248046875,-4.563684463500977,1.0062246322631836,2.7953619956970215
1729696946441561900,9.923561767578125,-4.289636135101318,1.2085514068603516,3.930299758911133
1729696946451331000,9.9333310546875,-3.0584423542022705,1.891829490661621,0.19028383493423462
1729696946461100300,9.943100341796875,-4.100366115570068,0.4064168930053711,3.8323936462402344
1729696946470869500,9.952869384765625,-3.7716498374938965,0.5597467422485352,3.485836982727051
1729696946480638700,9.962638671875,-3.4385628700256348,0.3924522399902344,3.0575740337371826
1729696946490408000,9.972407958984375,-3.0354855060577393,-0.051319122314453125,2.28897762298584
1729696946500177200,9.98217724609375,-2.637537956237793,-0.15433788299560547,0.667604923248291
1729696946509946400,9.9919462890625,-2.601612091064453,-1.1792173385620117,0.7781393527984619
1729696946519715800,10.0017158203125,-2.5420703887939453,-0.9655885696411133,0.07767149806022644
1729696946529485000,10.011485107421874,-2.318774700164795,-0.5269794464111328,-0.5183083415031433
1729696946539254300,10.021254150390625,-1.895602822303772,-0.2774524688720703,-1.3378239870071411
1729696946549023500,10.0310234375,-1.5408949851989746,-0.08783340454101562,-1.9356542825698853
1729696946558792700,10.040792724609375,-1.2693943977355957,0.21391868591308594,-2.5303540229797363
1729696946568562000,10.05056201171875,-1.0375746488571167,0.1664419174194336,-2.7156496047973633
1729696946578331100,10.0603310546875,-0.7535126209259033,0.14749908447265625,-2.8950698375701904
1729696946588100600,10.0701005859375,-0.5963804721832275,0.23984241485595703,-3.0053699016571045
1729696946597869800,10.079869873046874,-0.41768115758895874,0.21997451782226562,-3.037024736404419
1729696946607639000,10.08963916015625,-0.15455007553100586,0.19443416595458984,-3.4957191944122314
1729696946617408300,10.099408203125,0.1853640079498291,-0.09406471252441406,-4.039959907531738
1729696946627177500,10.109177490234375,0.34775590896606445,-0.5481176376342773,-4.335587024688721
1729696946636946700,10.11894677734375,0.8947619199752808,-0.7010927200317383,-4.330288887023926
1729696946646716000,10.1287158203125,2.3915798664093018,-0.873194694519043,-4.170001983642578
1729696946656485000,10.138485107421875,4.592077255249023,-1.2066831588745117,-4.030632495880127
1729696946666254600,10.148254638671874,6.575918197631836,-1.5541973114013672,-3.977505922317505
1729696946676023800,10.15802392578125,7.795222282409668,-1.8490943908691406,-4.003190040588379
1729696946685793000,10.16779296875,8.569490432739258,-1.7526044845581055,-3.6340112686157227
1729696946695562200,10.177562255859375,8.8689546585083,-1.1648893356323242,-3.0282039642333984
1729696946705331500,10.18733154296875,7.140899658203125,-0.84979248046875,-2.796516180038452
1729696946715100700,10.1971005859375,6.063332557678223,-0.9588489532470703,-2.926847457885742
1729696946724870000,10.206869873046875,5.315258502960205,-1.040949821472168,-3.044661521911621
1729696946734639400,10.216639404296876,4.538431167602539,-0.8768329620361328,-2.944748640060425
1729696946744408600,10.22640869140625,3.749206304550171,-0.8106966018676758,-2.902535915374756
1729696946754177800,10.236177734375,3.0488505363464355,-0.788395881652832,-2.9368436336517334
1729696946763947000,10.245947021484374,2.6692118644714355,-0.6439170837402344,-2.923978328704834
1729696946773716200,10.25571630859375,2.4642770290374756,-0.7975997924804688,-2.979696750640869
1729696946783485400,10.2654853515625,2.188887119293213,-1.5500154495239258,-3.3290822505950928
1729696946793254700,10.275254638671875,1.799377679824829,-2.270167350769043,-3.643644332885742
1729696946803024100,10.285024169921876,1.344649314880371,-2.971630096435547,-4.060873985290527
1729696946812793300,10.29479345703125,0.8940714597702026,-3.4604015350341797,-4.258016586303711
1729696946822562600,10.3045625,0.8159080743789673,-3.4240360260009766,-4.166833877563477
1729696946832331800,10.314331787109374,1.5182340145111084,-2.9740333557128906,-4.33036994934082
1729696946842101000,10.32410107421875,3.114198684692383,-2.7029953002929688,-4.807865142822266
1729696946851870200,10.3338701171875,4.994085788726807,-2.9179582595825195,-4.8688812255859375
1729696946861639400,10.343639404296875,6.510571479797363,-2.819697380065918,-4.953526020050049
1729696946871408600,10.35340869140625,10.125909805297852,-2.5583086013793945,-5.70159912109375
1729696946881177900,10.363177734375,14.287410736083984,-2.302304267883301,-6.452028751373291
1729696946890947300,10.372947265625,9.86795711517334,-2.125128746032715,-5.498736381530762
1729696946900716500,10.382716552734376,4.986449241638184,-2.335723876953125,-4.45276403427124
1729696946910485800,10.39248583984375,3.052442789077759,-3.5910215377807617,-3.779362440109253
1729696946920255000,10.4022548828125,2.015608072280884,-4.218451499938965,-3.1108672618865967
1729696946930024200,10.412024169921875,0.3001824915409088,-4.878373146057129,-2.850247621536255
1729696946939793400,10.42179345703125,-1.9969592094421387,-5.832216262817383,-1.8825186491012573
1729696946949563000,10.43156298828125,-3.7927370071411133,-6.622937202453613,-0.8314052820205688
1729696946959332000,10.44133203125,-4.819693088531494,-7.107357978820801,0.5227048993110657
1729696946969101300,10.451101318359376,-5.739651203155518,-8.452695846557617,2.437723398208618
1729696946978870500,10.46087060546875,-6.105598449707031,-8.318597793579102,4.433618068695068
1729696946988639700,10.4706396484375,-6.001195430755615,-7.727324485778809,5.066105365753174
1729696946998409000,10.480408935546874,-6.153012275695801,-6.584461212158203,5.02068567276001
1729696947008178200,10.49017822265625,-5.731829643249512,-4.187148094177246,3.988095283508301
1729696947017947400,10.499947509765626,-5.112025260925293,-1.6092090606689453,2.5790927410125732
1729696947027716900,10.509716796875,-4.755065441131592,-0.1266651153564453,1.9765558242797852
1729696947037486000,10.519486083984376,-4.612613677978516,0.3808565139770508,2.302973747253418
1729696947047255300,10.52925537109375,-4.63383674621582,1.2309188842773438,2.760590076446533
1729696947057024500,10.5390244140625,-4.01032829284668,2.142345428466797,3.164935350418091
1729696947066793700,10.548793701171874,-3.5729103088378906,2.7085485458374023,3.1402699947357178
1729696947076563000,10.55856298828125,-3.571382522583008,2.8582682609558105,3.2133636474609375
1729696947086332400,10.56833251953125,-4.303366661071777,3.021759033203125,3.404059886932373
1729696947096101600,10.5781015625,-5.817288398742676,3.163483142852783,3.369718551635742
1729696947105870800,10.587870849609375,-6.938072681427002,3.181593418121338,2.655651569366455
1729696947115640000,10.59764013671875,-7.222692489624023,3.139420509338379,2.3477814197540283
1729696947125409300,10.6074091796875,-7.272238731384277,3.251124858856201,2.5426197052001953
1729696947135178500,10.617178466796876,-7.133698463439941,3.581850528717041,2.637728452682495
1729696947144947700,10.62694775390625,-6.72498893737793,3.804929256439209,2.2859461307525635
1729696947154717000,10.636717041015626,-5.2105231285095215,3.832559585571289,1.0443012714385986
1729696947164486400,10.646486328125,-4.223402976989746,3.4914674758911133,0.6168980598449707
1729696947174255600,10.656255615234375,-3.382551670074463,3.4560389518737793,0.822311282157898
1729696947184024800,10.66602490234375,-3.0294606685638428,3.234658718109131,1.618938684463501
1729696947193794000,10.6757939453125,-2.947650909423828,3.0750041007995605,3.155184745788574
1729696947203563300,10.685563232421876,-2.50384259223938,3.340897560119629,4.342513561248779
1729696947213332500,10.69533251953125,-2.254337787628174,3.751387596130371,5.157506942749023
1729696947223101700,10.705101806640625,-1.902557134628296,4.171705722808838,5.38926887512207
1729696947232871200,10.71487109375,-1.5429340600967407,4.164846897125244,5.420427322387695
1729696947242640400,10.724640380859375,-0.8346573710441589,3.5888867378234863,4.71113920211792
1729696947252409600,10.73440966796875,-0.48136448860168457,2.721001625061035,5.064008712768555
1729696947262178800,10.7441787109375,0.8725267648696899,1.987936019897461,4.547491550445557
1729696947271948000,10.753947998046876,3.1817424297332764,0.02494525909423828,4.238558292388916
1729696947281717200,10.76371728515625,7.77741813659668,-2.19558048248291,2.9167020320892334
1729696947291486500,10.773486572265625,12.90155029296875,-4.454827308654785,-1.2905421257019043
1729696947301255700,10.783255615234374,10.093488693237305,-6.648290634155273,-5.535943031311035
1729696947311025200,10.793025146484375,8.396463394165039,-7.611203193664551,-7.625909805297852
1729696947320794400,10.80279443359375,5.772485733032227,-7.649650573730469,-7.815526485443115
1729696947330563600,10.8125634765625,3.1051254272460938,-5.831338882446289,-6.019274711608887
1729696947340332800,10.822332763671875,4.064647197723389,-2.214766502380371,-5.351215839385986
1729696947350102000,10.83210205078125,4.3285627365112305,-0.21877574920654297,-3.444361448287964
1729696947359871200,10.841871337890625,2.6290745735168457,1.5903186798095703,-3.080559253692627
1729696947369640700,10.851640625,0.7321974039077759,3.1227383613586426,-2.9211459159851074
1729696947379410000,10.861409912109375,-1.0596635341644287,4.089945316314697,-2.10693621635437
1729696947389179100,10.87117919921875,-2.2324154376983643,4.5778913497924805,-1.1394178867340088
1729696947398948400,10.8809482421875,-2.7976760864257812,4.0079145431518555,0.07570040225982666
1729696947408717600,10.890717529296875,-3.494601249694824,1.8285655975341797,1.4900054931640625
1729696947418486800,10.90048681640625,-4.3413405418396,-1.353257179260254,2.449695348739624
1729696947428256000,10.910256103515625,-4.652573108673096,-6.071187973022461,2.040090322494507
1729696947438025200,10.920025146484376,-0.10634875297546387,-11.904317855834961,0.8084337115287781
1729696947447794700,10.929794677734375,8.462028503417969,-15.457640647888184,-0.6471433639526367
1729696947457564000,10.93956396484375,5.767730712890625,-12.616046905517578,4.260411262512207
1729696947467333000,10.9493330078125,0.8268527984619141,-5.221521377563477,7.999247074127197
1729696947477102300,10.959102294921875,-4.480262756347656,0.46822547912597656,7.925102233886719
1729696947486871600,10.96887158203125,-5.369197368621826,2.2687644958496094,7.965418815612793
1729696947496640800,10.978640869140625,-5.363945960998535,3.36140775680542,7.560757637023926
1729696947506410000,10.988409912109375,-4.824639320373535,3.1106433868408203,6.538869857788086
1729696947516179500,10.998179443359374,-4.422234058380127,2.399777412414551,5.835405349731445
1729696947525948700,11.00794873046875,-4.428221702575684,1.4083213806152344,5.363753795623779
1729696947535718000,11.0177177734375,-4.71452522277832,-0.07620811462402344,5.055133819580078
1729696947545487000,11.027487060546875,-5.360097408294678,0.07549381256103516,4.6282572746276855
1729696947555256300,11.03725634765625,-5.897822380065918,0.6894330978393555,4.314579486846924
1729696947565025500,11.047025634765625,-6.249963760375977,0.9500665664672852,4.789252281188965
1729696947574794800,11.056794677734375,-5.708322048187256,0.8626289367675781,5.342769145965576
1729696947584564000,11.06656396484375,-4.719016075134277,0.8674001693725586,5.28602933883667
1729696947594333400,11.07633349609375,-3.695664405822754,1.0018577575683594,5.024160861968994
1729696947604102700,11.0861025390625,-3.042632818222046,0.7595529556274414,4.793278694152832
1729696947613871900,11.095871826171875,-2.6169772148132324,0.4709968566894531,4.486443042755127
1729696947623641000,11.10564111328125,-2.590296506881714,0.3745288848876953,3.884758949279785
1729696947633410300,11.115410400390624,-2.643960952758789,0.09427452087402344,3.38350510597229
1729696947643179500,11.125179443359375,-2.781540632247925,-0.5320672988891602,2.7012510299682617
1729696947652949000,11.134948974609374,-2.8920838832855225,-1.0046825408935547,1.9999176263809204
1729696947662718200,11.14471826171875,-2.8329503536224365,-1.3382787704467773,1.2973533868789673
1729696947672487400,11.1544873046875,-2.6128170490264893,-1.2298822402954102,0.8019477725028992
1729696947682256600,11.164256591796875,-2.184941291809082,-0.9196023941040039,0.3206642270088196
1729696947692025900,11.17402587890625,-1.8117705583572388,-0.6531591415405273,-0.2506333589553833
1729696947701795000,11.183795166015624,-1.614747166633606,-0.7362003326416016,-1.1457476615905762
1729696947711564300,11.193564208984375,-1.4755176305770874,-0.2631244659423828,-1.5620143413543701
1729696947721333500,11.20333349609375,-1.3926293849945068,0.6914510726928711,-2.6344010829925537
1729696947731103000,11.21310302734375,-0.940828800201416,0.9058132171630859,-2.4691073894500732
1729696947740872200,11.2228720703125,-0.6600077152252197,1.1202421188354492,-2.622446060180664
1729696947750641400,11.232641357421874,-0.5849432945251465,1.2651443481445312,-2.5934090614318848
1729696947760410600,11.24241064453125,-0.25583416223526,0.807647705078125,-2.618452548980713
1729696947770179800,11.252179931640624,0.03645569086074829,0.1782236099243164,-2.9138011932373047
1729696947779949000,11.261948974609375,0.28861063718795776,-0.20562076568603516,-3.258105993270874
1729696947789718500,11.271718505859376,0.5397244095802307,-0.5004816055297852,-3.6057775020599365
1729696947799487700,11.28148779296875,0.6883212924003601,-0.6145763397216797,-3.690453052520752
1729696947809257000,11.291257080078125,1.0495870113372803,-0.5835189819335938,-3.624267101287842
1729696947819026200,11.301026123046874,1.6700513362884521,-0.8794784545898438,-3.645606756210327
1729696947828795400,11.31079541015625,2.850041151046753,-1.1453466415405273,-3.458630084991455
1729696947838564600,11.320564697265626,3.9219846725463867,-1.1219205856323242,-3.1509156227111816
1729696947848333800,11.330333740234375,4.690287113189697,-0.9555587768554688,-2.8218469619750977
1729696947858103000,11.34010302734375,5.152921676635742,-1.1876535415649414,-2.5665407180786133
1729696947867872500,11.34987255859375,5.357535362243652,-1.3259553909301758,-2.3046116828918457
1729696947877641700,11.359641845703125,6.037197113037109,-1.159226417541504,-2.2150399684906006
1729696947887411000,11.369410888671876,6.595510005950928,-0.7619466781616211,-2.420433521270752
1729696947897180200,11.37918017578125,6.479637145996094,-0.33286285400390625,-3.073509454727173
1729696947906949400,11.388949462890626,5.790714740753174,-0.3992452621459961,-3.6306583881378174
1729696947916718600,11.398718505859375,4.7930169105529785,-0.6499729156494141,-3.893848180770874
1729696947926487800,11.40848779296875,3.8308768272399902,-1.0027484893798828,-3.7673797607421875
1729696947936257300,11.41825732421875,3.1347317695617676,-1.2667808532714844,-3.476611614227295
1729696947946026500,11.428026611328125,2.5767910480499268,-1.1765222549438477,-3.16115403175354
1729696947955795700,11.437795654296876,2.191046953201294,-0.8392410278320312,-2.854193687438965
1729696947965565000,11.44756494140625,1.9551039934158325,-0.9174880981445312,-2.903290033340454
1729696947975334100,11.457334228515625,1.9906126260757446,-1.3709383010864258,-3.173201322555542
1729696947985103400,11.467103271484374,2.102604627609253,-2.090057373046875,-3.259190320968628
1729696947994872600,11.47687255859375,2.2060861587524414,-2.2282724380493164,-3.367189884185791
1729696948004642000,11.48664208984375,2.5785794258117676,-3.040591239929199,-3.409639358520508
1729696948014411300,11.496411376953125,3.6178512573242188,-3.3949384689331055,-4.118830680847168
1729696948024180500,11.506180419921876,5.359233856201172,-3.3920135498046875,-5.039506912231445
1729696948033949700,11.51594970703125,7.191493511199951,-3.6669235229492188,-5.839290142059326
1729696948043719000,11.525718994140625,9.011468887329102,-3.3242883682250977,-6.458740711212158
1729696948053488000,11.535488037109374,13.236291885375977,-2.753629684448242,-7.502281188964844
1729696948063257300,11.54525732421875,14.166569709777832,-2.234691619873047,-7.782717227935791
1729696948073026800,11.55502685546875,6.785436153411865,-2.643378257751465,-6.479547023773193
1729696948082796000,11.564796142578125,3.582259178161621,-3.38205623626709,-5.872726917266846
1729696948092565200,11.574565185546875,2.0124030113220215,-4.550205230712891,-4.8260087966918945
1729696948102334500,11.58433447265625,-0.13751749694347382,-5.604679107666016,-3.3095414638519287
1729696948112103700,11.594103759765625,-2.256338119506836,-6.303736686706543,-1.0778834819793701
1729696948121873000,11.603872802734376,-4.078491687774658,-6.573537826538086,0.4856394827365875
1729696948131642000,11.61364208984375,-5.0972161293029785,-7.322811126708984,1.4660017490386963
1729696948141411600,11.62341162109375,-5.5240397453308105,-7.686315536499023,2.8145012855529785
1729696948151180800,11.633180908203125,-6.282565116882324,-7.933712959289551,4.1840105056762695
1729696948160950000,11.642949951171875,-6.659731388092041,-7.565157890319824,4.180319309234619
1729696948170719200,11.65271923828125,-6.72775411605835,-6.116721153259277,3.856597661972046
1729696948180488400,11.662488525390625,-6.987449645996094,-4.650796890258789,2.9149041175842285
1729696948190257700,11.672257568359376,-6.630988121032715,-2.612124443054199,1.7632577419281006
1729696948200027000,11.68202685546875,0.8072717189788818,-1.3028669357299805,-5.362288475036621
1729696948209796400,11.69179638671875,-6.330699920654297,-0.10691547393798828,1.6562827825546265
1729696948219565600,11.701565673828124,-6.010937690734863,0.8902463912963867,1.117812156677246
1729696948229334800,11.711334716796875,-0.8232934474945068,1.644296646118164,-0.8665759563446045
1729696948239104000,11.72110400390625,-5.7430572509765625,2.1525511741638184,1.6467888355255127
1729696948248873200,11.730873291015625,-5.923185348510742,2.7964797019958496,1.516994833946228
1729696948258642400,11.740642333984376,-6.027889251708984,3.037937641143799,1.1446311473846436
1729696948268412000,11.750411865234375,-5.527097702026367,2.914886474609375,1.4689382314682007
1729696948278181000,11.76018115234375,-4.878509521484375,3.046452522277832,2.2138431072235107
1729696948287950300,11.769950439453124,-4.1790642738342285,3.2284135818481445,2.5120368003845215
1729696948297719600,11.779719482421875,-2.813692808151245,3.233612060546875,2.492572069168091
1729696948307488800,11.78948876953125,-2.5973219871520996,2.9156713485717773,2.7333898544311523
1729696948317258000,11.799258056640625,-2.883376121520996,2.6703524589538574,3.0611398220062256
1729696948327027200,11.809027099609375,-3.1482834815979004,2.5302486419677734,3.5868940353393555
1729696948336796400,11.81879638671875,-3.328325033187866,2.6137847900390625,4.161355972290039
1729696948346566000,11.82856591796875,-3.39157772064209,2.688307762145996,4.878036022186279
1729696948356335000,11.838335205078126,-3.4230117797851562,2.9077839851379395,5.332683563232422
1729696948366104300,11.848104248046875,-3.3075308799743652,3.033541679382324,5.710938453674316
1729696948375873500,11.85787353515625,-3.1292974948883057,3.3455324172973633,5.831836700439453
1729696948385642800,11.867642822265625,-2.5001320838928223,3.7004294395446777,3.1341962814331055
1729696948395412000,11.877411865234375,-2.8264715671539307,4.192697048187256,6.205062389373779
1729696948405181400,11.887181396484374,-1.9236520528793335,4.556832313537598,5.8038225173950195
1729696948414950700,11.89695068359375,-1.5128815174102783,4.680429935455322,6.483432292938232
1729696948424720000,11.906719970703126,-0.7345472574234009,4.814765930175781,6.43466854095459
1729696948434489000,11.916489013671875,0.1643749475479126,4.502310276031494,6.1998138427734375
1729696948444258300,11.92625830078125,1.111398696899414,3.573395252227783,5.731081008911133
1729696948454027500,11.936027587890624,2.679234027862549,2.1405820846557617,4.741795063018799
1729696948463796700,11.945796630859375,5.94212007522583,0.17148590087890625,2.7083444595336914
1729696948473566200,11.955566162109376,9.100104331970215,-1.9368886947631836,-0.9415707588195801
1729696948483335400,11.96533544921875,11.571516990661621,-4.344945907592773,-5.573846340179443
1729696948493104600,11.975104736328126,7.7503581047058105,-7.413689613342285,-9.568313598632812
1729696948502873900,11.984873779296874,5.241695404052734,-9.210648536682129,-11.83055305480957
1729696948512643000,11.99464306640625,3.7993602752685547,-8.439805030822754,-11.946325302124023
1729696948522412300,12.004412353515624,4.414275646209717,-5.344687461853027,-10.765695571899414
1729696948532181500,12.014181396484375,4.246729373931885,-3.091390609741211,-5.6212158203125
1729696948541951000,12.023950927734376,2.7765989303588867,-0.27080249786376953,-3.064948081970215
1729696948551720200,12.03372021484375,1.5324252843856812,1.837904453277588,-2.52487850189209
1729696948561489400,12.043489501953125,0.3604644536972046,2.9165267944335938,-2.1355984210968018
1729696948571258600,12.053258544921874,0.11187398433685303,2.9250006675720215,-1.6821701526641846
1729696948581027800,12.06302783203125,0.38601601123809814,1.7550930976867676,-1.2488696575164795
1729696948590797000,12.072797119140626,0.959457516670227,-0.6604738235473633,-1.055457353591919
1729696948600566500,12.08256640625,1.8655864000320435,-4.566993713378906,-1.3362902402877808
1729696948610335700,12.092335693359376,8.041090965270996,-9.760887145996094,-3.0719475746154785
1729696948620105000,12.10210498046875,5.748948097229004,-14.03317928314209,-4.4393768310546875
1729696948629874200,12.111874267578125,-4.414438724517822,-10.476349830627441,-2.4558236598968506
1729696948639643400,12.121643310546874,-6.025171279907227,-5.205045700073242,1.6311581134796143
1729696948649412600,12.13141259765625,-4.274905204772949,-1.1253433227539062,5.045357704162598
1729696948659181800,12.141181884765626,-4.440059185028076,3.4686875343322754,5.765853404998779
1729696948668951300,12.150951416015625,-5.396087646484375,5.324573993682861,6.218038082122803
1729696948678720500,12.160720458984375,-5.827824115753174,5.141493320465088,6.7531280517578125
1729696948688489700,12.17048974609375,-5.61937141418457,3.852294921875,8.625055313110352
1729696948698259000,12.180259033203125,-5.218358039855957,3.6178064346313477,8.349923133850098
1729696948708028200,12.190028076171876,-5.31815242767334,2.679018020629883,8.523756980895996
1729696948717797400,12.19979736328125,-5.011782646179199,0.9463968276977539,8.599151611328125
1729696948727566800,12.20956689453125,-4.392608165740967,-1.3821001052856445,7.297854423522949
1729696948737336000,12.219336181640625,-4.203859329223633,-2.3166370391845703,6.315361976623535
1729696948747105300,12.229105224609375,-4.342228889465332,-1.8423242568969727,6.08242130279541
1729696948756874500,12.23887451171875,-4.50618839263916,-0.5555667877197266,6.7951273918151855
1729696948766643700,12.248643798828125,-4.459826469421387,0.3523216247558594,6.674658298492432
1729696948776413000,12.258412841796876,-3.6609132289886475,0.6843481063842773,6.1721086502075195
1729696948786182100,12.26818212890625,-2.9802680015563965,0.7994403839111328,5.170463562011719
