time,seconds_elapsed,z,y,x
1729696936545318000,0.02731787109375,9.78381633758545,0.5285928249359131,-0.4097806513309479
1729696936555087000,0.037087158203125,9.784706115722656,0.5241291522979736,-0.3939646780490875
1729696936564856300,0.046856201171875,9.785303115844727,0.5179001092910767,-0.38728973269462585
1729696936574625500,0.05662548828125,9.7854585647583,0.5154660940170288,-0.38662078976631165
1729696936584394800,0.066394775390625,9.785299301147461,0.5143123865127563,-0.39214998483657837
1729696936594164000,0.0761640625,9.785419464111328,0.5115708112716675,-0.3927391767501831
1729696936603933200,0.08593310546875,9.785240173339844,0.5135346055030823,-0.39465153217315674
1729696936613702400,0.095702392578125,9.78536605834961,0.5109187960624695,-0.3948904871940613
1729696936623471600,0.1054716796875,9.785470962524414,0.5103837251663208,-0.3930123746395111
1729696936633240800,0.11524072265625,9.785440444946289,0.5106102228164673,-0.3934703767299652
1729696936643010000,0.125010009765625,9.785540580749512,0.509239137172699,-0.39276641607284546
1729696936652779300,0.134779296875,9.785489082336426,0.50910484790802,-0.3942364752292633
1729696936662548500,0.144548583984375,9.78548526763916,0.5088251829147339,-0.39468270540237427
1729696936672318000,0.15431787109375,9.785504341125488,0.5084242820739746,-0.39471304416656494
1729696936682087200,0.164087158203125,9.785601615905762,0.5072789788246155,-0.39376893639564514
1729696936691856400,0.1738564453125,9.785584449768066,0.5077501535415649,-0.3936002850532532
1729696936701625600,0.18362548828125,9.785518646240234,0.5077454447746277,-0.3952220380306244
1729696936711394800,0.193394775390625,9.785467147827148,0.5084429979324341,-0.3956066966056824
1729696936721164000,0.2031640625,9.785408973693848,0.5089401602745056,-0.3964007496833801
1729696936730933200,0.212933349609375,9.78542709350586,0.5086718201637268,-0.39630326628685
1729696936740702500,0.222702392578125,9.785501480102539,0.5079429745674133,-0.39539363980293274
1729696936750471700,0.2324716796875,9.785451889038086,0.5086596608161926,-0.3957211375236511
1729696936760241000,0.242240966796875,9.785494804382324,0.5079730749130249,-0.3955249786376953
1729696936770010000,0.252010009765625,9.785463333129883,0.5080154538154602,-0.3962436616420746
1729696936779779300,0.261779296875,9.78544807434082,0.5080190896987915,-0.39661484956741333
1729696936789548500,0.271548583984375,9.785467147827148,0.5078280568122864,-0.3963985741138458
1729696936799317800,0.28131787109375,9.785475730895996,0.5074866414070129,-0.3965997099876404
1729696936809087000,0.2910869140625,9.785500526428223,0.507631242275238,-0.39582863450050354
1729696936818856400,0.3008564453125,9.785526275634766,0.5073295831680298,-0.39558830857276917
1729696936828625700,0.310625732421875,9.785560607910156,0.5063789486885071,-0.3959624469280243
1729696936838395000,0.320394775390625,9.785524368286133,0.5068554878234863,-0.3962520360946655
1729696936848164000,0.3301640625,9.78555965423584,0.5064781308174133,-0.3958446681499481
1729696936857933300,0.339933349609375,9.7855806350708,0.5061833262443542,-0.3956989645957947
1729696936867702500,0.34970263671875,9.785626411437988,0.5056326389312744,-0.3952872157096863
1729696936877471700,0.3594716796875,9.785632133483887,0.5057615041732788,-0.39497196674346924
1729696936887241000,0.369240966796875,9.78559398651123,0.5058741569519043,-0.39577966928482056
1729696936897010200,0.37901025390625,9.785632133483887,0.505677342414856,-0.39506807923316956
1729696936906779400,0.388779296875,9.785637855529785,0.505708634853363,-0.39487898349761963
1729696936916548600,0.398548583984375,9.78565788269043,0.50544273853302,-0.3947124779224396
1729696936926317800,0.40831787109375,9.785658836364746,0.5055878162384033,-0.39454367756843567
1729696936936087000,0.418087158203125,9.785679817199707,0.5052003860473633,-0.39449018239974976
1729696936945856500,0.4278564453125,9.785676956176758,0.5053021907806396,-0.39445507526397705
1729696936955625700,0.437625732421875,9.785676002502441,0.5051648020744324,-0.39464202523231506
1729696936965395000,0.44739501953125,9.785675048828125,0.5055449604988098,-0.3941662311553955
1729696936975164200,0.4571640625,9.78566837310791,0.505893886089325,-0.3939039707183838
1729696936984933400,0.466933349609375,9.785710334777832,0.5054931044578552,-0.39338040351867676
1729696936994702600,0.47670263671875,9.78575325012207,0.5046529173851013,-0.39336684346199036
1729696937004471800,0.486471923828125,9.785767555236816,0.5044136047363281,-0.39332371950149536
1729696937014241000,0.496240966796875,9.785787582397461,0.5042300224304199,-0.3930756449699402
1729696937024010200,0.50601025390625,9.785782814025879,0.5042484998703003,-0.3931577503681183
1729696937033779500,0.515779541015625,9.78577995300293,0.5039848685264587,-0.39359092712402344
1729696937043548700,0.525548583984375,9.785758018493652,0.5039515495300293,-0.3941505551338196
1729696937053318000,0.53531787109375,9.785780906677246,0.5036112666130066,-0.394020140171051
1729696937063087000,0.545087158203125,9.78577995300293,0.5037736296653748,-0.39384984970092773
1729696937072856300,0.554856201171875,9.785711288452148,0.5045760273933411,-0.3945353627204895
1729696937082625500,0.56462548828125,9.785696983337402,0.504670262336731,-0.39473971724510193
1729696937092395000,0.57439501953125,9.785704612731934,0.5046175122261047,-0.3946326673030853
1729696937102164200,0.584164306640625,9.785661697387695,0.5050589442253113,-0.39513930678367615
1729696937111933400,0.593933349609375,9.785615921020508,0.5054082274436951,-0.3958096206188202
1729696937121702700,0.60370263671875,9.785630226135254,0.5051385164260864,-0.39579519629478455
1729696937131472000,0.613471923828125,9.78564167022705,0.5049766898155212,-0.39572787284851074
1729696937141241000,0.623240966796875,9.785629272460938,0.504927396774292,-0.3961261212825775
1729696937151010300,0.63301025390625,9.785635948181152,0.5048695206642151,-0.39602112770080566
1729696937160779500,0.642779541015625,9.785608291625977,0.5052719712257385,-0.39617592096328735
1729696937170548700,0.652548828125,9.785594940185547,0.5059024095535278,-0.39569875597953796
1729696937180318000,0.66231787109375,9.785594940185547,0.5058936476707458,-0.3957184851169586
1729696937190087200,0.672087158203125,9.78558349609375,0.5062733292579651,-0.39550715684890747
1729696937199856400,0.6818564453125,9.785578727722168,0.5063451528549194,-0.395532488822937
1729696937209625600,0.69162548828125,9.78559398651123,0.5064698457717896,-0.39498502016067505
1729696937219394800,0.701394775390625,9.78560733795166,0.5067046880722046,-0.39434924721717834
1729696937229164300,0.711164306640625,9.785581588745117,0.5070894360542297,-0.39450040459632874
1729696937238933500,0.72093359375,9.785569190979004,0.5071905851364136,-0.39468255639076233
1729696937248702700,0.73070263671875,9.785551071166992,0.5072239637374878,-0.39509081840515137
1729696937258472000,0.740471923828125,9.785555839538574,0.5068085193634033,-0.39550837874412537
1729696937268241200,0.7502412109375,9.785557746887207,0.5069695711135864,-0.3952418863773346
1729696937278010400,0.76001025390625,9.785555839538574,0.5067728757858276,-0.39555102586746216
1729696937287779600,0.769779541015625,9.785589218139648,0.5062288641929626,-0.39543798565864563
1729696937297548800,0.779548828125,9.785590171813965,0.506473958492279,-0.395099014043808
1729696937307318000,0.789318115234375,9.785579681396484,0.5067958235740662,-0.39493098855018616
1729696937317087200,0.799087158203125,9.785592079162598,0.5064374804496765,-0.3950970768928528
1729696937326856400,0.8088564453125,9.785588264465332,0.5064902901649475,-0.3951288163661957
1729696937336625700,0.818625732421875,9.785587310791016,0.5062589645385742,-0.395431786775589
1729696937346395000,0.828394775390625,9.785571098327637,0.5062164664268494,-0.3958756625652313
1729696937356164000,0.8381640625,9.785569190979004,0.5063552856445312,-0.3957476317882538
1729696937365933300,0.847933349609375,9.785576820373535,0.5065073370933533,-0.3953613340854645
1729696937375702500,0.85770263671875,9.785573959350586,0.5065670609474182,-0.39534977078437805
1729696937385472000,0.867471923828125,9.785579681396484,0.5064123272895813,-0.39543044567108154
1729696937395241200,0.8772412109375,9.785606384277344,0.506101667881012,-0.39518073201179504
1729696937405010400,0.887010498046875,9.785662651062012,0.5055273771286011,-0.3945194482803345
1729696937414779600,0.896779541015625,9.785689353942871,0.5052120685577393,-0.3942674398422241
1729696937424548900,0.906548828125,9.785685539245605,0.5054994225502014,-0.39398521184921265
1729696937434318000,0.916318115234375,9.785706520080566,0.5052504539489746,-0.3937813937664032
1729696937444087300,0.92608740234375,9.785700798034668,0.5053483843803406,-0.39381206035614014
1729696937453856500,0.9358564453125,9.785685539245605,0.5055142045021057,-0.39393237233161926
1729696937463625700,0.945625732421875,9.785703659057617,0.5052604079246521,-0.3938346207141876
1729696937473395000,0.95539501953125,9.785719871520996,0.5051608085632324,-0.39356595277786255
1729696937483164200,0.9651640625,9.78571891784668,0.5054164528846741,-0.3932454288005829
1729696937492933400,0.974933349609375,9.785737037658691,0.5052659511566162,-0.3929974138736725
1729696937502702600,0.98470263671875,9.785736083984375,0.5053852796554565,-0.39284297823905945
1729696937512471800,0.994471923828125,9.785741806030273,0.5052478909492493,-0.3929133713245392
1729696937522241000,1.004240966796875,9.78574275970459,0.5050124526023865,-0.39316144585609436
1729696937532010500,1.014010498046875,9.785760879516602,0.5047836899757385,-0.39301544427871704
1729696937541779700,1.02377978515625,9.785738945007324,0.5050644278526306,-0.3932151794433594
1729696937551549000,1.033548828125,9.78571605682373,0.5054489970207214,-0.39327946305274963
1729696937561318100,1.043318115234375,9.785714149475098,0.5052427053451538,-0.3935997486114502
1729696937571087400,1.05308740234375,9.785697937011719,0.5055432915687561,-0.39362892508506775
1729696937580856600,1.062856689453125,9.785669326782227,0.5061143040657043,-0.3935789465904236
1729696937590625800,1.072625732421875,9.78568172454834,0.5062201619148254,-0.39314761757850647
1729696937600395000,1.08239501953125,9.785704612731934,0.5060157179832458,-0.39283132553100586
1729696937610164200,1.092164306640625,9.785726547241211,0.5055394768714905,-0.39288654923439026
1729696937619933400,1.101933349609375,9.785687446594238,0.5062236189842224,-0.39299190044403076
1729696937629702700,1.11170263671875,9.785646438598633,0.5062800645828247,-0.3939472436904907
1729696937639471900,1.121471923828125,9.785660743713379,0.5059576630592346,-0.39399608969688416
1729696937649241000,1.131240966796875,9.785665512084961,0.5062890648841858,-0.39347705245018005
1729696937659010300,1.14101025390625,9.785717010498047,0.5059683918952942,-0.392591655254364
1729696937668779500,1.150779541015625,9.78572940826416,0.5058895349502563,-0.39240124821662903
1729696937678548700,1.160548828125,9.785698890686035,0.5058854222297668,-0.39315521717071533
1729696937688318200,1.170318115234375,9.78569507598877,0.5057428479194641,-0.39342308044433594
1729696937698087400,1.18008740234375,9.785675048828125,0.5059469938278198,-0.3936401307582855
1729696937707856600,1.189856689453125,9.78565502166748,0.5062398314476013,-0.3937954902648926
1729696937717625900,1.1996259765625,9.78569507598877,0.5058634877204895,-0.393256276845932
1729696937727395000,1.20939501953125,9.785711288452148,0.5062528252601624,-0.3923661708831787
1729696937737164300,1.219164306640625,9.785697937011719,0.5063021183013916,-0.3926348388195038
1729696937746933500,1.22893359375,9.785656929016113,0.5064637660980225,-0.3934648334980011
1729696937756702700,1.23870263671875,9.78564167022705,0.5063620209693909,-0.3939689099788666
1729696937766472000,1.248471923828125,9.785637855529785,0.506260871887207,-0.39416947960853577
1729696937776241200,1.2582412109375,9.785638809204102,0.5067101716995239,-0.3935682773590088
1729696937786010400,1.26801025390625,9.785717010498047,0.5063988566398621,-0.3920316696166992
1729696937795779600,1.277779541015625,9.785774230957031,0.5058448910713196,-0.39132678508758545
1729696937805548800,1.287548828125,9.785745620727539,0.5062834024429321,-0.3914741277694702
1729696937815318000,1.297318115234375,9.785614967346191,0.5073238611221313,-0.39338570833206177
1729696937825087200,1.307087158203125,9.785599708557129,0.506912112236023,-0.3942817747592926
1729696937834856400,1.3168564453125,9.785660743713379,0.5063356161117554,-0.3935413360595703
1729696937844626000,1.3266259765625,9.78569221496582,0.5069652199745178,-0.3919084668159485
1729696937854395100,1.33639501953125,9.785727500915527,0.5066794753074646,-0.391387939453125
1729696937864164400,1.346164306640625,9.785715103149414,0.5069515705108643,-0.39136746525764465
1729696937873933600,1.35593359375,9.785669326782227,0.5063411593437195,-0.39328765869140625
1729696937883702800,1.365702880859375,9.785616874694824,0.5064598321914673,-0.39447879791259766
1729696937893472000,1.375471923828125,9.78560733795166,0.5059397220611572,-0.3953542709350586
1729696937903241200,1.3852412109375,9.78566837310791,0.5059671998023987,-0.39379459619522095
1729696937913010400,1.395010498046875,9.78579044342041,0.505109965801239,-0.39187711477279663
1729696937922779600,1.404779541015625,9.785754203796387,0.5051390528678894,-0.3927404582500458
1729696937932548900,1.414548828125,9.78565502166748,0.5060921311378479,-0.393949031829834
1729696937942318000,1.424318115234375,9.785638809204102,0.5051242113113403,-0.39561665058135986
1729696937952087300,1.43408740234375,9.78561782836914,0.5057175755500793,-0.3953695595264435
1729696937961856500,1.4438564453125,9.785637855529785,0.5056646466255188,-0.394950807094574
1729696937971625700,1.453625732421875,9.785736083984375,0.5047360062599182,-0.3936921954154968
1729696937981395000,1.46339501953125,9.785775184631348,0.5039801597595215,-0.3937148153781891
1729696937991164200,1.4731640625,9.785698890686035,0.5044293403625488,-0.39503172039985657
1729696938000933400,1.482933349609375,9.785688400268555,0.5037426948547363,-0.3961440920829773
1729696938010702800,1.492702880859375,9.785684585571289,0.5040837526321411,-0.39581453800201416
1729696938020472000,1.50247216796875,9.785768508911133,0.5036409497261047,-0.39429572224617004
1729696938030241300,1.5122412109375,9.785839080810547,0.5027129650115967,-0.39371243119239807
1729696938040010500,1.522010498046875,9.785810470581055,0.5032991170883179,-0.39369839429855347
1729696938049779700,1.53177978515625,9.785691261291504,0.5038838982582092,-0.39587002992630005
1729696938059549000,1.541548828125,9.785451889038086,0.5037010908126831,-0.40201446413993835
1729696938069318100,1.551318115234375,9.785187721252441,0.5048159956932068,-0.40701088309288025
1729696938079087400,1.56108740234375,9.785324096679688,0.5055899620056152,-0.40273818373680115
1729696938088856600,1.570856689453125,9.785544395446777,0.5027077198028564,-0.4009898006916046
1729696938098625800,1.580625732421875,9.78545093536377,0.5027684569358826,-0.40318894386291504
1729696938108395000,1.59039501953125,9.785446166992188,0.501675009727478,-0.4046616852283478
1729696938118164200,1.600164306640625,9.785423278808594,0.5002068281173706,-0.40701836347579956
1729696938127933400,1.609933349609375,9.78538990020752,0.500893235206604,-0.4069884419441223
1729696938137702700,1.61970263671875,9.785429954528809,0.5012108683586121,-0.405615895986557
1729696938147472000,1.629471923828125,9.785455703735352,0.501295268535614,-0.404898077249527
1729696938157241000,1.639240966796875,9.785517692565918,0.5017961263656616,-0.40279412269592285
1729696938167010300,1.64901025390625,9.785502433776855,0.5023020505905151,-0.4025272727012634
1729696938176779800,1.65877978515625,9.78545093536377,0.5019461512565613,-0.4041930139064789
1729696938186549000,1.668549072265625,9.785441398620605,0.5029451847076416,-0.403203547000885
1729696938196318200,1.678318115234375,9.78531551361084,0.5050796866416931,-0.40359535813331604
1729696938206087400,1.68808740234375,9.78516674041748,0.5094008445739746,-0.4017687439918518
1729696938215856600,1.697856689453125,9.785344123840332,0.5115433931350708,-0.394657701253891
1729696938225625900,1.7076259765625,9.787114143371582,0.48713770508766174,-0.3814208507537842
1729696938235395000,1.71739501953125,9.788993835449219,0.46087855100631714,-0.3654845356941223
1729696938245164300,1.727164306640625,9.791349411010742,0.43207448720932007,-0.3364070653915405
1729696938254933500,1.73693359375,9.794442176818848,0.39396727085113525,-0.28995710611343384
1729696938264702700,1.74670263671875,9.798331260681152,0.32639357447624207,-0.23779891431331635
1729696938274472000,1.756471923828125,9.8015718460083,0.26139241456985474,-0.17686054110527039
1729696938284241200,1.7662412109375,9.804170608520508,0.1963161826133728,-0.10044633597135544
1729696938294010400,1.77601025390625,9.80582332611084,0.12723495066165924,-0.004502832889556885
1729696938303779600,1.785779541015625,9.805954933166504,0.047044672071933746,0.10683336108922958
1729696938313548800,1.795548828125,9.803919792175293,-0.052641499787569046,0.22531253099441528
1729696938323318000,1.805318115234375,9.798209190368652,-0.18137019872665405,0.36411404609680176
1729696938333087500,1.81508740234375,9.786206245422363,-0.33757302165031433,0.5353546142578125
1729696938342856700,1.824856689453125,9.765776634216309,-0.508944571018219,0.7355030179023743
1729696938352626000,1.8346259765625,9.736599922180176,-0.6790679693222046,0.9528278708457947
1729696938362395100,1.84439501953125,9.699785232543945,-0.8327589631080627,1.179434895515442
1729696938372164400,1.854164306640625,9.657028198242188,-0.9499242901802063,1.4176872968673706
1729696938381933600,1.86393359375,9.606882095336914,-1.0263242721557617,1.680735468864441
1729696938391702800,1.873702880859375,9.549661636352539,-1.0664441585540771,1.9588403701782227
1729696938401472000,1.883471923828125,9.48969554901123,-1.0753110647201538,2.227055788040161
1729696938411241200,1.8932412109375,9.430272102355957,-1.0626188516616821,2.47208571434021
1729696938421010400,1.903010498046875,9.371356964111328,-1.0342020988464355,2.697866678237915
1729696938430779600,1.912779541015625,9.315038681030273,-0.9986811876296997,2.898806571960449
1729696938440548900,1.922548828125,9.268239974975586,-0.9761025309562683,3.0524330139160156
1729696938450318000,1.932318115234375,9.227193832397461,-0.9694712162017822,3.176380157470703
1729696938460087300,1.94208740234375,9.201743125915527,-0.9802268743515015,3.2461466789245605
1729696938469856500,1.9518564453125,9.198819160461426,-0.9909337162971497,3.2511796951293945
1729696938479626000,1.9616259765625,9.21549129486084,-0.9860031008720398,3.2051374912261963
1729696938489395200,1.971395263671875,9.245043754577637,-0.974572479724884,3.1224610805511475
1729696938499164400,1.981164306640625,9.280533790588379,-0.9747880697250366,3.015272855758667
1729696938508933600,1.99093359375,9.316251754760742,-0.9931524395942688,2.89680814743042
1729696938518702800,2.000702880859375,9.346400260925293,-1.024067997932434,2.786842107772827
1729696938528472000,2.01047216796875,9.3649320602417,-1.0576566457748413,2.711049795150757
1729696938538241300,2.0202412109375,9.373559951782227,-1.082095742225647,2.671297788619995
1729696938548010500,2.030010498046875,9.375163078308105,-1.0971275568008423,2.659515857696533
1729696938557779700,2.03977978515625,9.367828369140625,-1.11039400100708,2.679778575897217
1729696938567549000,2.049548828125,9.351103782653809,-1.1275229454040527,2.730555534362793
1729696938577318100,2.059318115234375,9.324063301086426,-1.1498585939407349,2.812481164932251
1729696938587087400,2.06908740234375,9.285501480102539,-1.1783727407455444,2.92596435546875
1729696938596856600,2.078856689453125,9.236310005187988,-1.2115592956542969,3.0648181438446045
1729696938606625800,2.088625732421875,9.179295539855957,-1.2464922666549683,3.2182581424713135
1729696938616395000,2.09839501953125,9.11886978149414,-1.2792128324508667,3.3734564781188965
1729696938626164500,2.10816455078125,9.059697151184082,-1.3061416149139404,3.519413948059082
1729696938635933700,2.11793359375,9.005975723266602,-1.3264288902282715,3.647380828857422
1729696938645703000,2.127702880859375,8.960273742675781,-1.3445489406585693,3.7518081665039062
1729696938655472000,2.13747216796875,8.921300888061523,-1.364135503768921,3.836653709411621
1729696938665241300,2.147241455078125,8.886914253234863,-1.3886985778808594,3.9070005416870117
1729696938675010600,2.157010498046875,8.855624198913574,-1.4188345670700073,3.9667646884918213
1729696938684779800,2.16677978515625,8.827104568481445,-1.4515384435653687,4.018165111541748
1729696938694549000,2.176549072265625,8.80583667755127,-1.4820300340652466,4.0535454750061035
1729696938704318200,2.186318115234375,8.79543685913086,-1.5072873830795288,4.066788196563721
1729696938714087400,2.19608740234375,8.796541213989258,-1.5214470624923706,4.059119701385498
1729696938723856600,2.205856689453125,8.805018424987793,-1.5219314098358154,4.040517330169678
1729696938733625900,2.2156259765625,8.81490421295166,-1.5149258375167847,4.021547794342041
1729696938743395000,2.22539501953125,8.825960159301758,-1.5099385976791382,3.9991118907928467
1729696938753164300,2.235164306640625,8.84168815612793,-1.516263484954834,3.9618029594421387
1729696938762933800,2.244933837890625,8.860424041748047,-1.5414631366729736,3.909878730773926
1729696938772703000,2.254702880859375,8.876646041870117,-1.5841141939163208,3.8556597232818604
1729696938782472200,2.26447216796875,8.891814231872559,-1.635488748550415,3.798839807510376
1729696938792241400,2.274241455078125,8.907752990722656,-1.6809996366500854,3.7411975860595703
1729696938802010600,2.2840107421875,8.92529010772705,-1.7115968465805054,3.6851086616516113
1729696938811779800,2.29377978515625,8.946720123291016,-1.7261669635772705,3.625871181488037
1729696938821549000,2.303549072265625,8.96945571899414,-1.737288236618042,3.5638551712036133
1729696938831318300,2.313318359375,8.987857818603516,-1.7513060569763184,3.51023268699646
1729696938841087500,2.32308740234375,8.999197959899902,-1.7727597951889038,3.4701807498931885
1729696938850856700,2.332856689453125,9.006308555603027,-1.8041534423828125,3.435377359390259
1729696938860626000,2.3426259765625,9.013428688049316,-1.8463740348815918,3.3940234184265137
1729696938870395100,2.35239501953125,9.025683403015137,-1.8936306238174438,3.334904432296753
1729696938880164400,2.362164306640625,9.04611873626709,-1.9359997510910034,3.2542331218719482
1729696938889933600,2.37193359375,9.077383995056152,-1.961334228515625,3.150343894958496
1729696938899703000,2.381703125,9.114933013916016,-1.9671204090118408,3.036250114440918
1729696938909472300,2.39147216796875,9.153762817382812,-1.9564054012298584,2.9242942333221436
1729696938919241500,2.401241455078125,9.189934730529785,-1.9423080682754517,2.818319320678711
1729696938929010700,2.4110107421875,9.220709800720215,-1.9231159687042236,2.729562997817993
1729696938938780000,2.42077978515625,9.241094589233398,-1.9000520706176758,2.676255464553833
1729696938948549000,2.430549072265625,9.252981185913086,-1.876174807548523,2.6519222259521484
1729696938958318300,2.440318359375,9.262726783752441,-1.847362995147705,2.638089656829834
1729696938968087600,2.450087646484375,9.272984504699707,-1.811536192893982,2.626880168914795
1729696938977856800,2.459856689453125,9.285287857055664,-1.7679260969161987,2.613090991973877
1729696938987626000,2.4696259765625,9.301497459411621,-1.7116081714630127,2.5928614139556885
1729696938997395200,2.479395263671875,9.324165344238281,-1.6274230480194092,2.5655055046081543
1729696939007164400,2.489164306640625,9.349320411682129,-1.5250000953674316,2.5367255210876465
1729696939016933600,2.49893359375,9.375514030456543,-1.4034837484359741,2.5100531578063965
1729696939026703000,2.508703125,9.399499893188477,-1.2558135986328125,2.4985456466674805
1729696939036472300,2.518472412109375,9.418448448181152,-1.08433997631073,2.507472515106201
1729696939046241500,2.528241455078125,9.429952621459961,-0.9036933183670044,2.535691022872925
1729696939056010800,2.5380107421875,9.43408203125,-0.725432276725769,2.577254056930542
1729696939065780000,2.547780029296875,9.43049144744873,-0.5481752157211304,2.6335761547088623
1729696939075549200,2.557549072265625,9.417378425598145,-0.3782990574836731,2.7092905044555664
1729696939085318400,2.567318359375,9.395719528198242,-0.2143968790769577,2.800868034362793
1729696939095087600,2.577087646484375,9.367203712463379,-0.04955897852778435,2.902315855026245
1729696939104856800,2.58685693359375,9.334394454956055,0.1215217188000679,3.0041112899780273
1729696939114626000,2.5966259765625,9.296304702758789,0.30273520946502686,3.1076443195343018
1729696939124395300,2.606395263671875,9.251516342163086,0.49072960019111633,3.2154347896575928
1729696939134164500,2.61616455078125,9.20324993133545,0.6869952082633972,3.316415786743164
1729696939143933700,2.62593359375,9.152013778686523,0.8860419988632202,3.409686803817749
1729696939153703000,2.635702880859375,9.09536075592041,1.0911694765090942,3.500593900680542
1729696939163472100,2.64547216796875,9.034067153930664,1.2971280813217163,3.5879628658294678
1729696939173241600,2.65524169921875,8.973414421081543,1.4941284656524658,3.6627602577209473
1729696939183010800,2.6650107421875,8.915005683898926,1.6833008527755737,3.7228429317474365
1729696939192780000,2.674780029296875,8.85640811920166,1.8670845031738281,3.7747066020965576
1729696939202549200,2.68454931640625,8.797367095947266,2.042731523513794,3.8215138912200928
1729696939212318500,2.694318359375,8.74087905883789,2.202669143676758,3.862081527709961
1729696939222087700,2.704087646484375,8.689982414245605,2.3427071571350098,3.8943967819213867
1729696939231857000,2.71385693359375,8.644232749938965,2.463129758834839,3.9218101501464844
1729696939241626000,2.723626220703125,8.601774215698242,2.569089651107788,3.9471054077148438
1729696939251395300,2.733395263671875,8.559879302978516,2.666356086730957,3.973588228225708
1729696939261164500,2.74316455078125,8.521416664123535,2.759237289428711,3.992799997329712
1729696939270933800,2.752933837890625,8.490972518920898,2.8507936000823975,3.9933395385742188
1729696939280703000,2.762702880859375,8.46812915802002,2.9407474994659424,3.9765799045562744
1729696939290472400,2.772472412109375,8.44989013671875,3.0258941650390625,3.951417922973633
1729696939300241700,2.78224169921875,8.435765266418457,3.104714870452881,3.9203312397003174
1729696939310011000,2.792010986328125,8.425704956054688,3.175248861312866,3.885315179824829
1729696939319780000,2.801780029296875,8.41818618774414,3.235473155975342,3.8517847061157227
1729696939329549300,2.81154931640625,8.41105842590332,3.2858505249023438,3.824612855911255
1729696939339318500,2.821318603515625,8.402728080749512,3.329279899597168,3.8053174018859863
1729696939349087700,2.831087646484375,8.391536712646484,3.3682429790496826,3.795712471008301
1729696939358857000,2.84085693359375,8.377310752868652,3.4052236080169678,3.7941410541534424
1729696939368626200,2.850626220703125,8.362173080444336,3.4428963661193848,3.7935335636138916
1729696939378395400,2.8603955078125,8.347321510314941,3.482858657836914,3.7897651195526123
1729696939388164600,2.87016455078125,8.330299377441406,3.525157928466797,3.7881088256835938
1729696939397934000,2.87993408203125,8.3112211227417,3.569779396057129,3.7882280349731445
1729696939407703300,2.889703369140625,8.294665336608887,3.6146085262298584,3.7820000648498535
1729696939417472500,2.899472412109375,8.282971382141113,3.6593310832977295,3.7645821571350098
1729696939427241700,2.90924169921875,8.272332191467285,3.7041966915130615,3.744039535522461
1729696939437011000,2.919010986328125,8.26036262512207,3.7489681243896484,3.7258591651916504
1729696939446780200,2.9287802734375,8.248384475708008,3.7920305728912354,3.708780527114868
1729696939456549400,2.93854931640625,8.23779582977295,3.831507444381714,3.691701650619507
1729696939466318600,2.948318603515625,8.22928237915039,3.8675289154052734,3.673079013824463
1729696939476087800,2.958087890625,8.22352123260498,3.899212598800659,3.652428150177002
1729696939485857000,2.96785693359375,8.220770835876465,3.9255921840667725,3.63029408454895
1729696939495626200,2.977626220703125,8.222949981689453,3.945371627807617,3.603822946548462
1729696939505395700,2.987395751953125,8.229890823364258,3.9578030109405518,3.5742247104644775
1729696939515165000,2.9971650390625,8.2399320602417,3.9646027088165283,3.543423652648926
1729696939524934100,3.00693408203125,8.25239372253418,3.9681921005249023,3.5102460384368896
1729696939534703400,3.016703369140625,8.265547752380371,3.972954750061035,3.473721504211426
1729696939544472600,3.02647265625,8.276851654052734,3.980841875076294,3.437586545944214
1729696939554241800,3.03624169921875,8.28400707244873,3.99267840385437,3.4064836502075195
1729696939564011000,3.046010986328125,8.286528587341309,4.0088911056518555,3.3812172412872314
1729696939573780200,3.0557802734375,8.284440040588379,4.028042793273926,3.3635287284851074
1729696939583549400,3.065549560546875,8.278310775756836,4.047802925109863,3.354884624481201
1729696939593318700,3.075318603515625,8.26907730102539,4.066841125488281,3.3546302318573
1729696939603088000,3.085087890625,8.259445190429688,4.084077835083008,3.3574182987213135
1729696939612857000,3.094857177734375,8.251408576965332,4.099268913269043,3.3586652278900146
1729696939622626300,3.104626220703125,8.24654769897461,4.113346576690674,3.3533883094787598
1729696939632395800,3.114395751953125,8.247060775756836,4.127615451812744,3.3345401287078857
1729696939642165000,3.1241650390625,8.254769325256348,4.142355918884277,3.2969753742218018
1729696939651934200,3.133934326171875,8.26903247833252,4.1543684005737305,3.2457222938537598
1729696939661703400,3.143703369140625,8.289329528808594,4.160466194152832,3.185580015182495
1729696939671472600,3.15347265625,8.316629409790039,4.160679340362549,3.1133291721343994
1729696939681241900,3.163241943359375,8.350319862365723,4.156781196594238,3.0271620750427246
1729696939691011000,3.173010986328125,8.388213157653809,4.1488356590271,2.9317965507507324
1729696939700780300,3.1827802734375,8.428848266601562,4.1366376876831055,2.8307456970214844
1729696939710549500,3.192549560546875,8.473122596740723,4.120822429656982,2.719447374343872
1729696939720318700,3.202318603515625,8.525962829589844,4.09721040725708,2.586740255355835
1729696939730088200,3.212088134765625,8.593586921691895,4.057549953460693,2.420109510421753
1729696939739857400,3.221857421875,8.681231498718262,3.9899415969848633,2.2106504440307617
1729696939749626600,3.231626708984375,8.797297477722168,3.8776021003723145,1.9344642162322998
1729696939759395800,3.241395751953125,8.947124481201172,3.692314624786377,1.5767545700073242
1729696939769165000,3.2511650390625,9.108362197875977,3.438990831375122,1.1753636598587036
1729696939778934300,3.260934326171875,9.269637107849121,3.119565725326538,0.7159094214439392
1729696939788703500,3.270703369140625,9.416683197021484,2.7314980030059814,0.188123419880867
1729696939798472700,3.28047265625,9.531777381896973,2.2708239555358887,-0.39869457483291626
1729696939808242000,3.290241943359375,9.596789360046387,1.737032413482666,-1.0270053148269653
1729696939818011100,3.30001123046875,9.593484878540039,1.140726923942566,-1.6834969520568848
1729696939827780600,3.309780517578125,9.504682540893555,0.5110142230987549,-2.360139846801758
1729696939837549800,3.3195498046875,9.322796821594238,-0.12176915258169174,-3.0399067401885986
1729696939847319000,3.329319091796875,9.056814193725586,-0.7288092970848083,-3.6896250247955322
1729696939857088300,3.339088134765625,8.726700782775879,-1.2817132472991943,-4.286289691925049
1729696939866857500,3.348857421875,8.353418350219727,-1.7669864892959595,-4.8237481117248535
1729696939876626700,3.358626708984375,7.951679229736328,-2.1950483322143555,-5.303107261657715
1729696939886396000,3.36839599609375,7.5305070877075195,-2.588178873062134,-5.723912715911865
1729696939896165000,3.3781650390625,7.091765403747559,-2.968324661254883,-6.0882086753845215
1729696939905934300,3.387934326171875,6.6370415687561035,-3.3541676998138428,-6.392934322357178
1729696939915703600,3.39770361328125,6.173944473266602,-3.7494139671325684,-6.632849216461182
1729696939925472800,3.40747265625,5.713322639465332,-4.139796257019043,-6.811051845550537
1729696939935242000,3.417241943359375,5.263118267059326,-4.5106120109558105,-6.937171936035156
1729696939945011500,3.427011474609375,4.827113628387451,-4.853978157043457,-7.0219831466674805
1729696939954780700,3.43678076171875,4.406651020050049,-5.167799949645996,-7.074296474456787
1729696939964550000,3.4465498046875,3.9953267574310303,-5.450685501098633,-7.1061787605285645
1729696939974319000,3.456319091796875,3.579322576522827,-5.7044196128845215,-7.128704071044922
1729696939984088300,3.46608837890625,3.1503825187683105,-5.9336256980896,-7.144057273864746
1729696939993857500,3.475857421875,2.711138963699341,-6.140580177307129,-7.149363040924072
1729696940003626800,3.485626708984375,2.271784782409668,-6.323233127593994,-7.143255710601807
1729696940013396000,3.49539599609375,1.8536293506622314,-6.475626468658447,-7.127460956573486
1729696940023165200,3.505165283203125,1.4832212924957275,-6.588611125946045,-7.110601425170898
1729696940032934700,3.5149345703125,1.177398681640625,-6.655138969421387,-7.105860710144043
1729696940042704000,3.524703857421875,0.9322113990783691,-6.673917770385742,-7.1246185302734375
1729696940052473000,3.53447314453125,0.724215567111969,-6.65049934387207,-7.1705474853515625
1729696940062242300,3.5442421875,0.522283136844635,-6.595745086669922,-7.238353252410889
1729696940072011500,3.554011474609375,0.30565711855888367,-6.5208845138549805,-7.318129539489746
1729696940081780700,3.56378076171875,0.07134450227022171,-6.432149410247803,-7.402212619781494
1729696940091550000,3.573550048828125,-0.1690998077392578,-6.329851150512695,-7.488309383392334
1729696940101319200,3.583319091796875,-0.39807698130607605,-6.217319965362549,-7.573431491851807
1729696940111088400,3.59308837890625,-0.5784403681755066,-6.134021282196045,-7.629519939422607
1729696940120857600,3.602857666015625,-0.7661378979682922,-6.0723090171813965,-7.6622772216796875
1729696940130626800,3.612626708984375,-0.9229689240455627,-5.99955940246582,-7.702193737030029
1729696940140396300,3.622396240234375,-1.0464153289794922,-5.889243125915527,-7.771243572235107
1729696940150165500,3.63216552734375,-1.1196647882461548,-5.737549781799316,-7.873833656311035
1729696940159934700,3.641934814453125,-1.1409541368484497,-5.584449291229248,-7.980133056640625
1729696940169704000,3.651703857421875,-1.1461619138717651,-5.442958831787109,-8.07656478881836
1729696940179473200,3.66147314453125,-1.1553008556365967,-5.316850662231445,-8.158846855163574
1729696940189242400,3.671242431640625,-1.1644800901412964,-5.203503608703613,-8.230304718017578
1729696940199011600,3.681011474609375,-1.1748617887496948,-5.095652103424072,-8.296048164367676
1729696940208780800,3.69078076171875,-1.1896132230758667,-4.995349407196045,-8.354740142822266
1729696940218550000,3.700550048828125,-1.2011871337890625,-4.906792640686035,-8.405410766601562
1729696940228319500,3.710319580078125,-1.1996378898620605,-4.82501220703125,-8.452840805053711
1729696940238088700,3.720088623046875,-1.1846539974212646,-4.7431640625,-8.501138687133789
1729696940247858000,3.72985791015625,-1.184936285018921,-4.664374828338623,-8.544585227966309
1729696940257627100,3.739627197265625,-1.2440292835235596,-4.594344615936279,-8.574075698852539
1729696940267396400,3.749396240234375,-1.3490859270095825,-4.544851779937744,-8.58456039428711
1729696940277165600,3.75916552734375,-1.4118571281433105,-4.521101474761963,-8.587007522583008
1729696940286934800,3.768934814453125,-1.3946787118911743,-4.502124786376953,-8.599775314331055
1729696940296704000,3.7787041015625,-1.3252286911010742,-4.463739395141602,-8.630712509155273
1729696940306473200,3.78847314453125,-1.2268192768096924,-4.408083915710449,-8.673758506774902
1729696940316242700,3.79824267578125,-1.1121344566345215,-4.339199066162109,-8.723812103271484
1729696940326012000,3.808011962890625,-0.9996135234832764,-4.275965213775635,-8.768538475036621
1729696940335781000,3.817781005859375,-0.8762064576148987,-4.238463401794434,-8.799891471862793
1729696940345550300,3.82755029296875,-0.7186179161071777,-4.237679958343506,-8.814535140991211
1729696940355319600,3.837319580078125,-0.4849764108657837,-4.25050163269043,-8.824309349060059
1729696940365088800,3.8470888671875,-0.2288985550403595,-4.2663798332214355,-8.827003479003906
1729696940374858000,3.85685791015625,0.008221745491027832,-4.286639213562012,-8.820149421691895
1729696940384627200,3.866627197265625,0.2574008107185364,-4.309106349945068,-8.805438041687012
1729696940394396400,3.876396484375,0.47716644406318665,-4.340938568115234,-8.780600547790527
1729696940404165600,3.88616552734375,0.6711845993995667,-4.364132881164551,-8.756382942199707
1729696940413935000,3.89593505859375,0.8513352274894714,-4.376589298248291,-8.734476089477539
1729696940423704300,3.905704345703125,1.0150272846221924,-4.379980087280273,-8.715267181396484
1729696940433473500,3.9154736328125,1.1575623750686646,-4.3735880851745605,-8.700697898864746
1729696940443242800,3.92524267578125,1.2805886268615723,-4.3590312004089355,-8.69076156616211
1729696940453012000,3.935011962890625,1.3789761066436768,-4.335788249969482,-8.687333106994629
1729696940462781200,3.94478125,1.477482557296753,-4.3109450340271,-8.683501243591309
1729696940472550400,3.95455029296875,1.604170560836792,-4.285390377044678,-8.673664093017578
1729696940482319600,3.964319580078125,1.7421296834945679,-4.252027988433838,-8.663464546203613
1729696940492089000,3.974089111328125,1.857582926750183,-4.203547477722168,-8.663138389587402
1729696940501858300,3.9838583984375,1.9526973962783813,-4.141303062438965,-8.672195434570312
1729696940511627500,3.99362744140625,2.050713062286377,-4.072229862213135,-8.682275772094727
1729696940521396700,4.003396728515625,2.172438859939575,-4.006791114807129,-8.683117866516113
1729696940531166000,4.013166015625,2.328892230987549,-3.95526123046875,-8.666172981262207
1729696940540935200,4.02293505859375,2.5207929611206055,-3.9208719730377197,-8.628021240234375
1729696940550704400,4.032704345703125,2.754228353500366,-3.906787633895874,-8.56280517578125
1729696940560473600,4.0424736328125,3.0265259742736816,-3.9136013984680176,-8.467246055603027
1729696940570242800,4.052242919921875,3.3135578632354736,-3.9346156120300293,-8.349222183227539
1729696940580012000,4.062011962890625,3.5778024196624756,-3.954867124557495,-8.229747772216797
1729696940589781500,4.071781494140625,3.739626169204712,-3.9616477489471436,-8.154196739196777
1729696940599550700,4.08155078125,3.7393767833709717,-3.946124792098999,-8.161834716796875
1729696940609320000,4.09131982421875,3.658029556274414,-3.909747838973999,-8.216026306152344
1729696940619089200,4.101089111328125,3.575240135192871,-3.861379384994507,-8.275131225585938
1729696940628858400,4.1108583984375,3.5168278217315674,-3.803877353668213,-8.32663345336914
1729696940638627600,4.120627685546875,3.488612651824951,-3.7427449226379395,-8.366111755371094
1729696940648396800,4.130396728515625,3.4770679473876953,-3.6926159858703613,-8.393150329589844
1729696940658166000,4.140166015625,3.4672536849975586,-3.663525342941284,-8.409940719604492
1729696940667935500,4.149935546875,3.4489893913269043,-3.6538052558898926,-8.421672821044922
1729696940677704700,4.15970458984375,3.425431728363037,-3.6624059677124023,-8.4275484085083
1729696940687474000,4.169473876953125,3.40207576751709,-3.6942007541656494,-8.42313289642334
1729696940697243100,4.1792431640625,3.3829221725463867,-3.7587080001831055,-8.402280807495117
1729696940707012400,4.189012451171875,3.369197368621826,-3.8599321842193604,-8.361806869506836
1729696940716781600,4.198781494140625,3.3559107780456543,-3.9891300201416016,-8.306328773498535
1729696940726550800,4.20855078125,3.3263461589813232,-4.136384963989258,-8.245976448059082
1729696940736320000,4.218320068359375,3.2685673236846924,-4.2965874671936035,-8.186952590942383
1729696940746089200,4.228089111328125,3.1796934604644775,-4.470782279968262,-8.128470420837402
1729696940755858400,4.2378583984375,3.0658557415008545,-4.663856506347656,-8.063457489013672
1729696940765628000,4.2476279296875,2.9305531978607178,-4.874517440795898,-7.988824367523193
1729696940775397000,4.257397216796875,2.771949052810669,-5.095002174377441,-7.907442092895508
1729696940785166300,4.267166259765625,2.597604990005493,-5.314330577850342,-7.821811199188232
1729696940794935600,4.276935546875,2.419469118118286,-5.524194717407227,-7.733035564422607
1729696940804704800,4.286704833984375,2.2443411350250244,-5.720635890960693,-7.642489910125732
1729696940814474000,4.296473876953125,2.0814120769500732,-5.8976240158081055,-7.553550720214844
1729696940824243200,4.3062431640625,1.9421120882034302,-6.049582481384277,-7.470016956329346
1729696940834012400,4.316012451171875,1.836027979850769,-6.184638500213623,-7.385773181915283
1729696940843782000,4.325781982421875,1.7681251764297485,-6.31163215637207,-7.29434061050415
1729696940853551000,4.335551025390625,1.737201452255249,-6.436030387878418,-7.192359924316406
1729696940863320300,4.3453203125,1.7488644123077393,-6.556842803955078,-7.079524517059326
1729696940873089500,4.355089599609375,1.8049848079681396,-6.667374610900879,-6.961216449737549
1729696940882858800,4.364858642578125,1.9068773984909058,-6.762826919555664,-6.840934753417969
1729696940892628000,4.3746279296875,2.0221774578094482,-6.848836421966553,-6.721207141876221
1729696940902397200,4.384397216796875,2.121088981628418,-6.936980247497559,-6.599216938018799
1729696940912166400,4.39416650390625,2.1883840560913086,-7.031307697296143,-6.476269245147705
1729696940921936000,4.403935791015625,2.218297243118286,-7.131336212158203,-6.355595111846924
1729696940931705000,4.413705078125,2.2164716720581055,-7.233675479888916,-6.239516735076904
1729696940941474300,4.423474365234375,2.195847272872925,-7.333984851837158,-6.128727912902832
1729696940951243500,4.433243408203125,2.1689939498901367,-7.4264044761657715,-6.0261406898498535
1729696940961012700,4.4430126953125,2.1379554271698,-7.476687431335449,-5.974836826324463
1729696940970782000,4.452781982421875,2.0816614627838135,-7.499054431915283,-5.966679096221924
1729696940980551200,4.46255126953125,1.9855620861053467,-7.488978862762451,-6.011915683746338
1729696940990320400,4.4723203125,1.838985562324524,-7.461254596710205,-6.092471122741699
1729696941000089600,4.482089599609375,1.6450313329696655,-7.434597969055176,-6.17988920211792
1729696941009859000,4.491859130859375,1.4145315885543823,-7.418336391448975,-6.256018161773682
1729696941019628300,4.501628173828125,1.1698566675186157,-7.409427642822266,-6.316819190979004
1729696941029397500,4.5113974609375,0.9529255628585815,-7.395580768585205,-6.369278430938721
1729696941039166700,4.521166748046875,0.7717841863632202,-7.385581016540527,-6.4053053855896
1729696941048936000,4.53093603515625,0.6412694454193115,-7.378844738006592,-6.427426338195801
1729696941058705200,4.540705078125,0.5646159052848816,-7.3808369636535645,-6.432328224182129
1729696941068474400,4.550474365234375,0.5332433581352234,-7.388210296630859,-6.42653751373291
1729696941078243800,4.560243896484375,0.5229102969169617,-7.385173320770264,-6.430875778198242
1729696941088013000,4.570012939453125,0.5171250104904175,-7.37665319442749,-6.44111442565918
1729696941097782300,4.5797822265625,0.5073313117027283,-7.36294412612915,-6.457558631896973
1729696941107551500,4.589551513671875,0.49298959970474243,-7.343632698059082,-6.480618953704834
1729696941117320700,4.59932080078125,0.4752844572067261,-7.322038173675537,-6.506322860717773
1729696941127090000,4.60908984375,0.45380890369415283,-7.301187992095947,-6.531239986419678
1729696941136859100,4.618859130859375,0.4442324936389923,-7.2904534339904785,-6.543877601623535
1729696941146628400,4.62862841796875,0.48577913641929626,-7.303680419921875,-6.526151657104492
1729696941156397600,4.6383974609375,0.49173232913017273,-7.320176601409912,-6.50719690322876
1729696941166167000,4.6481669921875,0.4235977530479431,-7.32316255569458,-6.5086283683776855
1729696941175936300,4.657936279296875,0.33864665031433105,-7.318282604217529,-6.5190839767456055
1729696941185705500,4.66770556640625,0.2534334063529968,-7.305818557739258,-6.536909103393555
1729696941195474700,4.677474609375,0.17298492789268494,-7.27590799331665,-6.5727949142456055
1729696941205244000,4.687243896484375,0.06529509276151657,-7.228200912475586,-6.627160549163818
1729696941215013000,4.69701318359375,-0.09008091688156128,-7.181140899658203,-6.677835464477539
1729696941224782300,4.7067822265625,-0.2895371913909912,-7.163436412811279,-6.691167831420898
1729696941234551600,4.716551513671875,-0.5445372462272644,-7.199399948120117,-6.636452674865723
1729696941244321000,4.726321044921875,-0.8542853593826294,-7.289768218994141,-6.5038347244262695
1729696941254090200,4.73609033203125,-1.2253193855285645,-7.425652027130127,-6.287182807922363
1729696941263859500,4.745859375,-1.6271302700042725,-7.587931156158447,-5.995508193969727
1729696941273628700,4.755628662109375,-1.9636749029159546,-7.755014419555664,-5.67222261428833
1729696941283398000,4.76539794921875,-1.9797590970993042,-7.909860610961914,-5.448400020599365
1729696941293167000,4.7751669921875,-1.876642107963562,-8.029597282409668,-5.307934761047363
1729696941302936300,4.784936279296875,-1.8261243104934692,-8.13693904876709,-5.160025596618652
1729696941312705500,4.79470556640625,-1.838238000869751,-8.246227264404297,-4.979058742523193
1729696941322474800,4.804474853515625,-1.8799089193344116,-8.354034423828125,-4.779795169830322
1729696941332244200,4.814244140625,-1.9175430536270142,-8.456241607666016,-4.580982685089111
1729696941342013400,4.824013427734375,-1.925329327583313,-8.561873435974121,-4.376966953277588
1729696941351782700,4.83378271484375,-1.90458083152771,-8.66427993774414,-4.1800971031188965
1729696941361552000,4.8435517578125,-1.8796143531799316,-8.748269081115723,-4.013132095336914
1729696941371321000,4.853321044921875,-1.8692606687545776,-8.804915428161621,-3.8922641277313232
1729696941381090300,4.86309033203125,-1.880401372909546,-8.833728790283203,-3.8209564685821533
1729696941390859500,4.872859619140625,-1.9060115814208984,-8.845039367675781,-3.7819020748138428
1729696941400629000,4.88262890625,-1.9367657899856567,-8.853606224060059,-3.7460620403289795
1729696941410398200,4.892398193359375,-1.9720603227615356,-8.868249893188477,-3.692629814147949
1729696941420167400,4.90216748046875,-2.0220212936401367,-8.889616966247559,-3.6133816242218018
1729696941429936600,4.9119365234375,-2.102632522583008,-8.908442497253418,-3.5197958946228027
1729696941439705900,4.921705810546875,-2.2217259407043457,-8.915332794189453,-3.4279987812042236
1729696941449475000,4.93147509765625,-2.3606810569763184,-8.906583786010742,-3.3571321964263916
1729696941459244300,4.941244384765625,-2.494983434677124,-8.887004852294922,-3.311583995819092
1729696941469013500,4.951013427734375,-2.6172056198120117,-8.86003303527832,-3.289442300796509
1729696941478782700,4.96078271484375,-2.7230224609375,-8.83487319946289,-3.2711682319641113
1729696941488552200,4.97055224609375,-2.803588628768921,-8.816179275512695,-3.2534985542297363
1729696941498321400,4.9803212890625,-2.839578866958618,-8.809565544128418,-3.240173578262329
1729696941508090600,4.990090576171875,-2.8105053901672363,-8.842971801757812,-3.1738474369049072
1729696941517859800,4.99985986328125,-2.711338520050049,-8.915581703186035,-3.054741621017456
1729696941527629000,5.009629150390625,-2.5342607498168945,-9.011492729187012,-2.922483444213867
1729696941537398300,5.019398193359375,-2.2902750968933105,-9.121150970458984,-2.780221939086914
1729696941547167500,5.02916748046875,-2.0000786781311035,-9.237777709960938,-2.6141064167022705
1729696941556937000,5.03893701171875,-1.6754465103149414,-9.356596946716309,-2.4119226932525635
1729696941566706200,5.0487060546875,-1.3226991891860962,-9.47618579864502,-2.150054931640625
1729696941576475400,5.058475341796875,-0.9470880031585693,-9.589838027954102,-1.8189034461975098
1729696941586244600,5.06824462890625,-0.5596805214881897,-9.68388557434082,-1.442055344581604
1729696941596013800,5.078013916015625,-0.19984301924705505,-9.74852180480957,-1.0472638607025146
1729696941605783000,5.087782958984375,-0.0055409143678843975,-9.784073829650879,-0.6650147438049316
1729696941615552300,5.09755224609375,0.02261204831302166,-9.801504135131836,-0.3168585002422333
1729696941625321500,5.107321533203125,-0.0286667849868536,-9.806601524353027,-0.011905727908015251
1729696941635090700,5.117090576171875,-0.12244643270969391,-9.802672386169434,0.2510046362876892
1729696941644860200,5.126860107421875,-0.24623174965381622,-9.79194164276123,0.4771091341972351
1729696941654629400,5.13662939453125,-0.3833579421043396,-9.774882316589355,0.6892764568328857
1729696941664398600,5.146398681640625,-0.5215751528739929,-9.751456260681152,0.8985772132873535
1729696941674167800,5.156167724609375,-0.6608183979988098,-9.721994400024414,1.102964997291565
1729696941683937000,5.16593701171875,-0.8128174543380737,-9.687015533447266,1.2928452491760254
1729696941693706200,5.175706298828125,-0.9780354499816895,-9.646384239196777,1.4700732231140137
1729696941703475500,5.185475341796875,-1.1731146574020386,-9.597585678100586,1.6372299194335938
1729696941713245000,5.195244873046875,-1.408083200454712,-9.545808792114258,1.7507779598236084
1729696941723014100,5.20501416015625,-1.6551316976547241,-9.503398895263672,1.765310287475586
1729696941732783400,5.214783447265625,-1.8820384740829468,-9.475738525390625,1.6848421096801758
1729696941742552600,5.224552490234375,-2.0580108165740967,-9.462738990783691,1.5464634895324707
1729696941752321800,5.23432177734375,-2.1598753929138184,-9.462007522583008,1.4056116342544556
1729696941762091000,5.244091064453125,-2.186291217803955,-9.470894813537598,1.3010300397872925
1729696941771860200,5.253860107421875,-2.1599416732788086,-9.48515510559082,1.2397112846374512
1729696941781629400,5.26362939453125,-2.1081509590148926,-9.49986457824707,1.2160063982009888
1729696941791398700,5.273398681640625,-2.0510921478271484,-9.511968612670898,1.2189580202102661
1729696941801168100,5.283168212890625,-1.9996250867843628,-9.52115535736084,1.2326714992523193
1729696941810937300,5.292937255859375,-1.9578118324279785,-9.528525352478027,1.2428072690963745
1729696941820706600,5.30270654296875,-1.9274760484695435,-9.534998893737793,1.2405719757080078
1729696941830475800,5.312475830078125,-1.9083114862442017,-9.54123592376709,1.2221142053604126
1729696941840245000,5.322244873046875,-1.899434208869934,-9.547755241394043,1.1844440698623657
1729696941850014200,5.33201416015625,-1.8983443975448608,-9.554574966430664,1.129941701889038
1729696941859783400,5.341783447265625,-1.9005955457687378,-9.561141014099121,1.068979263305664
1729696941869553000,5.351552978515625,-1.8999338150024414,-9.567502975463867,1.0116925239562988
1729696941879322000,5.361322021484375,-1.8934050798416138,-9.573457717895508,0.9666032195091248
1729696941889091300,5.37109130859375,-1.8799843788146973,-9.578657150268555,0.9409427046775818
1729696941898860500,5.380860595703125,-1.8553621768951416,-9.583867073059082,0.9367585778236389
1729696941908629800,5.390629638671875,-1.8116956949234009,-9.590847969055176,0.9506691098213196
1729696941918399000,5.40039892578125,-1.748768925666809,-9.600374221801758,0.9721099734306335
1729696941928168200,5.410168212890625,-1.6407737731933594,-9.616816520690918,0.9975359439849854
1729696941937937400,5.4199375,-1.511361002922058,-9.636343002319336,1.013437271118164
1729696941947706600,5.42970654296875,-1.3917316198349,-9.65485954284668,1.0085452795028687
1729696941957476000,5.43947607421875,-1.2941597700119019,-9.671607971191406,0.9775110483169556
1729696941967245300,5.449245361328125,-1.2228881120681763,-9.686488151550293,0.9202610850334167
1729696941977014500,5.4590146484375,-1.1701265573501587,-9.700231552124023,0.8406562805175781
1729696941986783700,5.46878369140625,-1.1173604726791382,-9.713786125183105,0.7511665225028992
1729696941996553000,5.478552978515625,-1.0480453968048096,-9.728165626525879,0.6593756079673767
1729696942006322200,5.488322265625,-0.9559497237205505,-9.74363899230957,0.5639535188674927
1729696942016091400,5.49809130859375,-0.8482983112335205,-9.758913040161133,0.46303582191467285
1729696942025860900,5.50786083984375,-0.7325148582458496,-9.772658348083496,0.359124094247818
1729696942035630000,5.517630126953125,-0.6033350825309753,-9.784855842590332,0.2509448230266571
1729696942045399300,5.5273994140625,-0.44266408681869507,-9.795748710632324,0.13320189714431763
1729696942055168500,5.53716845703125,-0.25435829162597656,-9.803349494934082,0.005227464716881514
1729696942064937700,5.546937744140625,-0.06079434975981712,-9.805562019348145,-0.13288255035877228
1729696942074707000,5.55670703125,0.11918789148330688,-9.802038192749023,-0.27610713243484497
1729696942084476200,5.56647607421875,0.2775058150291443,-9.793767929077148,-0.41893044114112854
1729696942094245400,5.576245361328125,0.4155980050563812,-9.781786918640137,-0.560638964176178
1729696942104014600,5.5860146484375,0.5343987345695496,-9.767284393310547,-0.6963776350021362
1729696942113784000,5.5957841796875,0.6341234445571899,-9.75136947631836,-0.8240518569946289
1729696942123553300,5.60555322265625,0.7210450172424316,-9.734609603881836,-0.9422688484191895
1729696942133322500,5.615322509765625,0.802318274974823,-9.717560768127441,-1.0467510223388672
1729696942143091700,5.625091796875,0.8770629167556763,-9.70178508758545,-1.1298303604125977
1729696942152861000,5.63486083984375,0.9417765736579895,-9.689166069030762,-1.1846997737884521
1729696942162630100,5.644630126953125,0.9975752234458923,-9.679505348205566,-1.2175394296646118
1729696942172399600,5.654399658203125,1.05055570602417,-9.670223236083984,-1.2463880777359009
1729696942182168800,5.6641689453125,1.0983017683029175,-9.659337043762207,-1.2889213562011719
1729696942191938000,5.67393798828125,1.1361157894134521,-9.647172927856445,-1.3459893465042114
1729696942201707300,5.683707275390625,1.1619075536727905,-9.635578155517578,-1.4056998491287231
1729696942211476500,5.6934765625,1.179565191268921,-9.625582695007324,-1.4584788084030151
1729696942221245700,5.70324560546875,1.195357322692871,-9.617592811584473,-1.4978015422821045
1729696942231015000,5.713014892578125,1.210713505744934,-9.611520767211914,-1.5242146253585815
1729696942240784100,5.7227841796875,1.2228991985321045,-9.606897354125977,-1.5435125827789307
1729696942250553300,5.73255322265625,1.2276487350463867,-9.603477478027344,-1.5609229803085327
1729696942260322800,5.74232275390625,1.223289966583252,-9.601184844970703,-1.578355073928833
1729696942270092000,5.752092041015625,1.211723804473877,-9.599818229675293,-1.5954924821853638
1729696942279861200,5.761861328125,1.1957932710647583,-9.59935474395752,-1.610234260559082
1729696942289630500,5.77163037109375,1.1787904500961304,-9.59969711303711,-1.620694637298584
1729696942299399700,5.781399658203125,1.1631109714508057,-9.600643157958984,-1.6264097690582275
1729696942309169000,5.7911689453125,1.149566411972046,-9.602152824401855,-1.627127766609192
1729696942318938000,5.800938232421875,1.1395183801651,-9.603965759277344,-1.6234880685806274
1729696942328707600,5.81070751953125,1.133905053138733,-9.606308937072754,-1.613529920578003
1729696942338476800,5.820476806640625,1.1300426721572876,-9.609610557556152,-1.5964888334274292
1729696942348246000,5.83024609375,1.1238199472427368,-9.614568710327148,-1.5708214044570923
1729696942358015200,5.84001513671875,1.1121721267700195,-9.621681213378906,-1.5351552963256836
1729696942367784400,5.849784423828125,1.0943928956985474,-9.631155014038086,-1.4877996444702148
1729696942377553700,5.8595537109375,1.0703110694885254,-9.642792701721191,-1.428765058517456
1729696942387323000,5.869322998046875,1.0381078720092773,-9.656044960021973,-1.3614437580108643
1729696942397092000,5.879092041015625,0.9945942759513855,-9.670382499694824,-1.290298581123352
1729696942406861600,5.888861572265625,0.9390484094619751,-9.684879302978516,-1.2213481664657593
1729696942416630800,5.898630859375,0.872093141078949,-9.69878101348877,-1.1590968370437622
1729696942426400000,5.90839990234375,0.7931212186813354,-9.711785316467285,-1.1057007312774658
1729696942436169200,5.918169189453125,0.7000935077667236,-9.723525047302246,-1.064574956893921
1729696942445938400,5.9279384765625,0.593239963054657,-9.733505249023438,-1.037946105003357
1729696942455707600,5.937707763671875,0.47492098808288574,-9.74101448059082,-1.0283410549163818
1729696942465476900,5.947476806640625,0.34910106658935547,-9.744956016540527,-1.0413267612457275
1729696942475246300,5.957246337890625,0.2156001478433609,-9.744864463806152,-1.0777416229248047
1729696942485015600,5.967015625,0.07087993621826172,-9.741331100463867,-1.1277583837509155
1729696942494784800,5.97678466796875,-0.07325331121683121,-9.7344331741333,-1.185673475265503
1729696942504554000,5.986553955078125,-0.188711017370224,-9.724984169006348,-1.2487789392471313
1729696942514323200,5.9963232421875,-0.2569531500339508,-9.71471118927002,-1.3148216009140015
1729696942524092400,6.006092529296875,-0.27946072816848755,-9.70551586151123,-1.3766802549362183
1729696942533861600,6.015861572265625,-0.27190667390823364,-9.698249816894531,-1.4284242391586304
1729696942543630800,6.025630859375,-0.24562931060791016,-9.694212913513184,-1.4602351188659668
1729696942553400000,6.035400146484375,-0.20103244483470917,-9.693387985229492,-1.4724849462509155
1729696942563169500,6.04516943359375,-0.1434355229139328,-9.693894386291504,-1.47588312625885
1729696942572938800,6.054938720703125,-0.07853321731090546,-9.693601608276367,-1.4826700687408447
1729696942582708000,6.0647080078125,0.015562028624117374,-9.688342094421387,-1.518609881401062
1729696942592477200,6.074477294921875,0.12102647125720978,-9.673148155212402,-1.6080868244171143
1729696942602246400,6.084246337890625,0.18387264013290405,-9.65430736541748,-1.7119990587234497
1729696942612015600,6.094015625,0.20216289162635803,-9.641279220581055,-1.7819207906723022
1729696942621784800,6.103784912109375,0.20003379881381989,-9.634342193603516,-1.8192932605743408
1729696942631554300,6.11355419921875,0.18393847346305847,-9.631414413452148,-1.8364112377166748
1729696942641323500,6.123323486328125,0.14727188646793365,-9.6328125,-1.8323804140090942
1729696942651092700,6.1330927734375,0.08631901443004608,-9.63886833190918,-1.804206371307373
1729696942660862000,6.142862060546875,-0.010234169661998749,-9.647913932800293,-1.7572779655456543
1729696942670631200,6.152631103515625,-0.12397345155477524,-9.658098220825195,-1.6959303617477417
1729696942680400400,6.162400390625,-0.21256349980831146,-9.667415618896484,-1.6328723430633545
1729696942690169600,6.172169677734375,-0.25799110531806946,-9.67469596862793,-1.5824315547943115
1729696942699938800,6.181938720703125,-0.25909966230392456,-9.680558204650879,-1.545976161956787
1729696942709708300,6.191708251953125,-0.2259712517261505,-9.686784744262695,-1.5117961168289185
1729696942719477500,6.2014775390625,-0.17684394121170044,-9.69533634185791,-1.4627305269241333
1729696942729246700,6.211246826171875,-0.13076062500476837,-9.706198692321777,-1.3939181566238403
1729696942739016000,6.221015869140625,-0.10087896883487701,-9.717768669128418,-1.31346595287323
1729696942748785200,6.23078515625,-0.08930859714746475,-9.728487014770508,-1.232458233833313
1729696942758554400,6.240554443359375,-0.09650736302137375,-9.737593650817871,-1.157734990119934
1729696942768323600,6.250323486328125,-0.12424028664827347,-9.744929313659668,-1.0914746522903442
1729696942778093000,6.260093017578125,-0.17445959150791168,-9.750426292419434,-1.0339866876602173
1729696942787862300,6.2698623046875,-0.24692624807357788,-9.753949165344238,-0.9848194122314453
1729696942797631500,6.279631591796875,-0.3369269073009491,-9.755434036254883,-0.9425403475761414
1729696942807400700,6.289400634765625,-0.4389517605304718,-9.754735946655273,-0.907109797000885
1729696942817170000,6.299169921875,-0.5476887822151184,-9.751935005187988,-0.8776091933250427
1729696942826939100,6.308939208984375,-0.6582881212234497,-9.7476224899292,-0.8490622043609619
1729696942836708400,6.318708251953125,-0.7674352526664734,-9.742354393005371,-0.8172922730445862
1729696942846477600,6.3284775390625,-0.8738646507263184,-9.736459732055664,-0.7798067331314087
1729696942856247000,6.3382470703125,-0.9767802357673645,-9.730063438415527,-0.7363115549087524
1729696942866016300,6.348016357421875,-1.0766243934631348,-9.722963333129883,-0.6893801689147949
1729696942875785500,6.357785400390625,-1.174712896347046,-9.7149658203125,-0.6402179002761841
1729696942885554700,6.3675546875,-1.2701953649520874,-9.706084251403809,-0.590707004070282
1729696942895324000,6.377323974609375,-1.3612674474716187,-9.696520805358887,-0.542984664440155
1729696942905093000,6.387093017578125,-1.4471100568771362,-9.68653678894043,-0.49725502729415894
1729696942914862300,6.3968623046875,-1.5271817445755005,-9.676619529724121,-0.44848328828811646
1729696942924631800,6.4066318359375,-1.6014459133148193,-9.666976928710938,-0.3940954804420471
1729696942934401000,6.416401123046875,-1.674217939376831,-9.656794548034668,-0.33720293641090393
1729696942944170200,6.426170166015625,-1.751332402229309,-9.644954681396484,-0.27941572666168213
1729696942953939500,6.435939453125,-1.8464694023132324,-9.628765106201172,-0.21865352988243103
1729696942963708700,6.445708740234375,-1.956385612487793,-9.608019828796387,-0.16995275020599365
1729696942973478000,6.455477783203125,-2.0768463611602783,-9.583306312561035,-0.1316692978143692
1729696942983247000,6.4652470703125,-2.208272933959961,-9.554229736328125,-0.10303924977779388
1729696942993016300,6.475016357421875,-2.351717472076416,-9.520133018493652,-0.08300241827964783
1729696943002785800,6.484785888671875,-2.5174341201782227,-9.477825164794922,-0.061321087181568146
1729696943012555000,6.494554931640625,-2.698878049850464,-9.427922248840332,-0.02716744877398014
1729696943022324200,6.50432421875,-2.8706233501434326,-9.377082824707031,0.014678278006613255
1729696943032093400,6.514093505859375,-3.0126094818115234,-9.33228588104248,0.054904356598854065
1729696943041862700,6.523862548828125,-3.111212730407715,-9.29961109161377,0.08927986770868301
1729696943051631900,6.5336318359375,-3.153332233428955,-9.285057067871094,0.12080539762973785
1729696943061401000,6.543401123046875,-3.13930082321167,-9.289438247680664,0.14668062329292297
1729696943071170300,6.55317041015625,-3.089510440826416,-9.30595588684082,0.15648223459720612
1729696943080939800,6.562939697265625,-3.0186233520507812,-9.329257011413574,0.15255776047706604
1729696943090709000,6.572708984375,-2.9352738857269287,-9.35598373413086,0.1418711245059967
1729696943100478200,6.582478271484375,-2.848686695098877,-9.382874488830566,0.13052710890769958
1729696943110247400,6.592247314453125,-2.766793727874756,-9.407487869262695,0.12006141245365143
1729696943120016600,6.6020166015625,-2.6962151527404785,-9.428082466125488,0.10982646048069
1729696943129785900,6.611785888671875,-2.6403071880340576,-9.44400405883789,0.09978901594877243
1729696943139555000,6.62155517578125,-2.599639415740967,-9.455392837524414,0.0882793590426445
1729696943149324500,6.631324462890625,-2.572394371032715,-9.462976455688477,0.0724533274769783
1729696943159093800,6.64109375,-2.5557146072387695,-9.467633247375488,0.051152411848306656
1729696943168863000,6.650863037109375,-2.5465004444122314,-9.470224380493164,0.023960169404745102
1729696943178632200,6.660632080078125,-2.5419375896453857,-9.471479415893555,-0.005657054949551821
1729696943188401400,6.6704013671875,-2.5416481494903564,-9.471514701843262,-0.028661921620368958
1729696943198170600,6.680170654296875,-2.547699213027954,-9.469890594482422,-0.02804572880268097
1729696943207939800,6.68993994140625,-2.519855260848999,-9.477372169494629,0.01170530915260315
1729696943217709000,6.699708984375,-2.3852555751800537,-9.511917114257812,0.06623335182666779
1729696943227478500,6.709478515625,-2.146286725997925,-9.568371772766113,0.10052860528230667
1729696943237247700,6.719247802734375,-1.846168041229248,-9.630736351013184,0.10472344607114792
1729696943247017000,6.729016845703125,-1.5312117338180542,-9.686079025268555,0.0750918760895729
1729696943256786200,6.7387861328125,-1.233496904373169,-9.728761672973633,0.007285945117473602
1729696943266555400,6.748555419921875,-0.9536729454994202,-9.759647369384766,-0.10087709873914719
1729696943276324600,6.75832470703125,-0.6826382279396057,-9.77989673614502,-0.24085333943367004
1729696943286093800,6.76809375,-0.39792904257774353,-9.790738105773926,-0.39177703857421875
1729696943295863300,6.77786328125,-0.09207049757242203,-9.791657447814941,-0.5341752171516418
1729696943305632500,6.787632568359375,0.2261958122253418,-9.78170394897461,-0.6614366769790649
1729696943315401700,6.797401611328125,0.5428410172462463,-9.76184368133545,-0.762967586517334
1729696943325171000,6.8071708984375,0.8377748131752014,-9.735564231872559,-0.8290390372276306
1729696943334940200,6.816940185546875,1.0933829545974731,-9.707843780517578,-0.8559646010398865
1729696943344709400,6.82670947265625,1.3049908876419067,-9.681410789489746,-0.8588703870773315
1729696943354478600,6.836478515625,1.4736851453781128,-9.657167434692383,-0.8589235544204712
1729696943364247800,6.846247802734375,1.6044797897338867,-9.635298728942871,-0.8700761795043945
1729696943374017300,6.856017333984375,1.7066255807876587,-9.61490535736084,-0.900791347026825
1729696943383786500,6.865786376953125,1.7835980653762817,-9.595544815063477,-0.9563897252082825
1729696943393555700,6.8755556640625,1.8293389081954956,-9.578116416931152,-1.0409529209136963
1729696943403325000,6.885324951171875,1.8431448936462402,-9.562664985656738,-1.1526646614074707
1729696943413094100,6.89509423828125,1.8341091871261597,-9.546907424926758,-1.2895718812942505
1729696943422863400,6.90486328125,1.8145291805267334,-9.527974128723145,-1.4476122856140137
1729696943432632600,6.914632568359375,1.7939869165420532,-9.504738807678223,-1.6161495447158813
1729696943442402000,6.924402099609375,1.7771209478378296,-9.478229522705078,-1.7819634675979614
1729696943452171300,6.934171142578125,1.7688407897949219,-9.450677871704102,-1.930359959602356
1729696943461940500,6.9439404296875,1.777478814125061,-9.423502922058105,-2.05147647857666
1729696943471709700,6.953709716796875,1.8154093027114868,-9.396488189697266,-2.1402528285980225
1729696943481479000,6.96347900390625,1.8834998607635498,-9.371330261230469,-2.1911160945892334
1729696943491248000,6.973248046875,1.9702630043029785,-9.349964141845703,-2.206043243408203
1729696943501017300,6.983017333984375,2.066671848297119,-9.332244873046875,-2.1928212642669678
1729696943510786600,6.99278662109375,2.166290760040283,-9.317209243774414,-2.1603665351867676
1729696943520556000,7.00255615234375,2.261202812194824,-9.304376602172852,-2.118004560470581
1729696943530325200,7.0123251953125,2.3440768718719482,-9.294093132019043,-2.072563409805298
1729696943540094500,7.022094482421875,2.4096908569335938,-9.287317276000977,-2.0271942615509033
1729696943549863700,7.03186376953125,2.4603559970855713,-9.28407096862793,-1.9806725978851318
1729696943559633000,7.0416328125,2.499701976776123,-9.28470516204834,-1.9277279376983643
1729696943569402000,7.051402099609375,2.526794672012329,-9.29089641571045,-1.861433982849121
1729696943579171300,7.06117138671875,2.539463996887207,-9.303323745727539,-1.7803635597229004
1729696943588940800,7.07094091796875,2.536947727203369,-9.321527481079102,-1.6862431764602661
1729696943598710000,7.0807099609375,2.5197901725769043,-9.34437370300293,-1.5823147296905518
1729696943608479200,7.090479248046875,2.486902952194214,-9.371583938598633,-1.46940016746521
1729696943618248400,7.10024853515625,2.4376959800720215,-9.40243911743164,-1.349875807762146
1729696943628017700,7.110017578125,2.3722116947174072,-9.435551643371582,-1.2301883697509766
1729696943637787000,7.119786865234375,2.2900450229644775,-9.469989776611328,-1.1159675121307373
1729696943647556000,7.12955615234375,2.197025775909424,-9.503427505493164,-1.0140653848648071
1729696943657325300,7.1393251953125,2.0946900844573975,-9.535009384155273,-0.930726170539856
1729696943667094800,7.1490947265625,2.006821632385254,-9.558786392211914,-0.878998875617981
1729696943676864000,7.158864013671875,2.002060890197754,-9.557417869567871,-0.9043741226196289
1729696943686633200,7.16863330078125,2.0462608337402344,-9.53624439239502,-1.0213919878005981
1729696943696402400,7.17840234375,2.084704875946045,-9.510746955871582,-1.1705114841461182
1729696943706171600,7.188171630859375,2.117537260055542,-9.485101699829102,-1.3112162351608276
1729696943715940900,7.19794091796875,2.1616311073303223,-9.458465576171875,-1.4265954494476318
1729696943725710000,7.2077099609375,2.2239491939544678,-9.4337797164917,-1.4927254915237427
1729696943735479600,7.2174794921875,2.293241500854492,-9.414754867553711,-1.5079219341278076
1729696943745248800,7.227248779296875,2.360241174697876,-9.399903297424316,-1.4971566200256348
1729696943755018000,7.23701806640625,2.412407159805298,-9.3897066116333,-1.4778633117675781
1729696943764787200,7.246787109375,2.4396002292633057,-9.385591506958008,-1.4592489004135132
1729696943774556400,7.256556396484375,2.4358103275299072,-9.38929271697998,-1.4416625499725342
1729696943784325600,7.26632568359375,2.4000895023345947,-9.401647567749023,-1.4209076166152954
1729696943794094800,7.2760947265625,2.332756280899048,-9.422487258911133,-1.3947603702545166
1729696943803864000,7.285864013671875,2.2252280712127686,-9.452829360961914,-1.3648371696472168
1729696943813633500,7.295633544921875,2.0771291255950928,-9.489314079284668,-1.3449277877807617
1729696943823402800,7.30540283203125,2.009359121322632,-9.497522354125977,-1.389217495918274
1729696943833172000,7.315171875,1.9703248739242554,-9.49073600769043,-1.4879982471466064
1729696943842941200,7.324941162109375,1.9584662914276123,-9.470364570617676,-1.6269582509994507
1729696943852710400,7.33471044921875,2.0044562816619873,-9.439289093017578,-1.74709951877594
1729696943862479600,7.344479736328125,2.087975025177002,-9.406474113464355,-1.8245577812194824
1729696943872248800,7.354248779296875,2.1289849281311035,-9.387532234191895,-1.8740440607070923
1729696943882018300,7.364018310546875,2.071964979171753,-9.400303840637207,-1.8739378452301025
1729696943891787500,7.37378759765625,1.9280704259872437,-9.438154220581055,-1.8368935585021973
1729696943901556700,7.383556640625,1.7527507543563843,-9.480147361755371,-1.7958416938781738
1729696943911326000,7.393325927734375,1.5828516483306885,-9.518341064453125,-1.751038908958435
1729696943921095200,7.40309521484375,1.4313596487045288,-9.551620483398438,-1.6994587182998657
1729696943930864400,7.412864501953125,1.3112646341323853,-9.57763671875,-1.649200201034546
1729696943940633600,7.422633544921875,1.2269923686981201,-9.59569263458252,-1.6085882186889648
1729696943950402800,7.43240283203125,1.1688889265060425,-9.607547760009766,-1.58086097240448
1729696943960172300,7.44217236328125,1.1249228715896606,-9.61662483215332,-1.5573930740356445
1729696943969941500,7.45194140625,1.0898228883743286,-9.626045227050781,-1.523787498474121
1729696943979710700,7.461710693359375,1.0620617866516113,-9.63717269897461,-1.4721812009811401
1729696943989480000,7.47147998046875,1.0499067306518555,-9.64852523803711,-1.405005931854248
1729696943999249200,7.481249267578125,1.0286704301834106,-9.663717269897461,-1.3133102655410767
1729696944009018400,7.491018310546875,1.0068933963775635,-9.676197052001953,-1.2360243797302246
1729696944018787600,7.50078759765625,0.9793245792388916,-9.686983108520508,-1.172035574913025
1729696944028557000,7.51055712890625,0.9376550912857056,-9.697876930236816,-1.1146267652511597
1729696944038326300,7.520326171875,0.8752302527427673,-9.710173606872559,-1.0568327903747559
1729696944048095500,7.530095458984375,0.7911542654037476,-9.724099159240723,-0.9931574463844299
1729696944057864700,7.53986474609375,0.6903494596481323,-9.738863945007324,-0.9210538864135742
1729696944067634000,7.549634033203125,0.5784693360328674,-9.753435134887695,-0.8403975963592529
1729696944077403100,7.559403076171875,0.4575349986553192,-9.767019271850586,-0.7525826692581177
1729696944087172400,7.56917236328125,0.3323248624801636,-9.779016494750977,-0.6563453078269958
1729696944096941600,7.578941650390625,0.204549178481102,-9.7886962890625,-0.5567548871040344
1729696944106711000,7.5887109375,0.0739142969250679,-9.795729637145996,-0.4567219316959381
1729696944116480300,7.598480224609375,-0.06039265915751457,-9.800057411193848,-0.3544237017631531
1729696944126249500,7.60824951171875,-0.20068120956420898,-9.801406860351562,-0.2500869929790497
1729696944136018700,7.618018798828125,-0.35021382570266724,-9.79928970336914,-0.147185817360878
1729696944145788000,7.627787841796875,-0.5125409364700317,-9.793105125427246,-0.052599042654037476
1729696944155557000,7.63755712890625,-0.6928907036781311,-9.782097816467285,0.02923228032886982
1729696944165326300,7.647326416015625,-0.903723418712616,-9.764412879943848,0.09953618049621582
1729696944175095800,7.657095703125,-1.1438801288604736,-9.73841667175293,0.15865013003349304
1729696944184865000,7.666864990234375,-1.3841450214385986,-9.706260681152344,0.2074100226163864
1729696944194634200,7.67663427734375,-1.6029112339019775,-9.67154598236084,0.24952371418476105
1729696944204403500,7.686403564453125,-1.7935445308685303,-9.636933326721191,0.2882564961910248
1729696944214172700,7.696172607421875,-1.9544999599456787,-9.604371070861816,0.3261681795120239
1729696944223942000,7.70594189453125,-2.0886733531951904,-9.574604034423828,0.3671208620071411
1729696944233711000,7.715711181640625,-2.2006988525390625,-9.547621726989746,0.4125811457633972
1729696944243480300,7.725480224609375,-2.291280746459961,-9.524105072021484,0.4602716863155365
1729696944253249500,7.73524951171875,-2.3576819896698,-9.505354881286621,0.5098411440849304
1729696944263019000,7.74501904296875,-2.395922899246216,-9.492956161499023,0.5601160526275635
1729696944272788200,7.754788330078125,-2.4061827659606934,-9.487409591674805,0.6080626249313354
1729696944282557400,7.764557373046875,-2.3949387073516846,-9.487661361694336,0.6472457647323608
1729696944292326700,7.77432666015625,-2.3778634071350098,-9.49032211303711,0.6707794070243835
1729696944302096000,7.784095947265625,-2.3729360103607178,-9.49101448059082,0.6783905029296875
1729696944311865000,7.793864990234375,-2.390554904937744,-9.486761093139648,0.6760266423225403
1729696944321634600,7.803634521484375,-2.428107500076294,-9.47733211517334,0.6744298338890076
1729696944331403800,7.81340380859375,-2.4769129753112793,-9.464081764221191,0.6829795837402344
1729696944341173000,7.823173095703125,-2.5250823497772217,-9.449810028076172,0.7038666009902954
1729696944350942200,7.832942138671875,-2.560323476791382,-9.438319206237793,0.730241596698761
1729696944360711400,7.84271142578125,-2.5747201442718506,-9.432451248168945,0.7550249099731445
1729696944370480600,7.852480712890625,-2.5657129287719727,-9.433403968811035,0.773557186126709
1729696944380249900,7.862249755859375,-2.536997079849243,-9.440364837646484,0.7832855582237244
1729696944390019000,7.87201904296875,-2.497523069381714,-9.450791358947754,0.7844070792198181
1729696944399788300,7.881788330078125,-2.4569430351257324,-9.461930274963379,0.7782659530639648
1729696944409557800,7.891557861328125,-2.4266271591186523,-9.471051216125488,0.7622693181037903
1729696944419327000,7.901326904296875,-2.425571918487549,-9.472996711730957,0.7411544919013977
1729696944429096200,7.91109619140625,-2.456031322479248,-9.46600341796875,0.7301177978515625
1729696944438865400,7.920865478515625,-2.4855401515960693,-9.45816707611084,0.7318154573440552
1729696944448634600,7.930634521484375,-2.484278440475464,-9.457830429077148,0.7404084801673889
1729696944458403800,7.94040380859375,-2.3698911666870117,-9.486166954040527,0.7527577877044678
1729696944468173300,7.95017333984375,-2.118612289428711,-9.546241760253906,0.7423872351646423
1729696944477942500,7.959942626953125,-1.790084719657898,-9.616994857788086,0.6923895478248596
1729696944487711700,7.969711669921875,-1.4403926134109497,-9.681252479553223,0.6074625253677368
1729696944497481000,7.97948095703125,-1.1063337326049805,-9.731385231018066,0.4965433180332184
1729696944507250200,7.989250244140625,-0.7966389060020447,-9.767251014709473,0.36952850222587585
1729696944517019400,7.999019287109375,-0.5084081888198853,-9.790897369384766,0.22412976622581482
1729696944526788600,8.00878857421875,-0.23572002351284027,-9.803621292114258,0.06175744906067848
1729696944536557800,8.018557861328125,0.02895691618323326,-9.805935859680176,-0.11476956307888031
1729696944546327000,8.0283271484375,0.28618261218070984,-9.797857284545898,-0.300781786441803
1729696944556096500,8.038096435546874,0.5411362648010254,-9.780197143554688,-0.47468218207359314
1729696944565865700,8.04786572265625,0.7922829985618591,-9.755071640014648,-0.6174699664115906
1729696944575635000,8.057635009765624,1.0336105823516846,-9.725665092468262,-0.7165660262107849
1729696944585404200,8.067404052734375,1.2573281526565552,-9.69516372680664,-0.7702617049217224
1729696944595173400,8.07717333984375,1.4548485279083252,-9.665694236755371,-0.7925605177879333
1729696944604942600,8.086942626953125,1.6275185346603394,-9.636502265930176,-0.8120258450508118
1729696944614711800,8.0967119140625,1.785174012184143,-9.604630470275879,-0.8570995926856995
1729696944624481300,8.106481201171874,1.9184538125991821,-9.57319450378418,-0.9186336398124695
1729696944634250500,8.11625048828125,2.0245771408081055,-9.542288780212402,-1.0080690383911133
1729696944644019700,8.126019775390626,2.100531816482544,-9.514782905578613,-1.1077271699905396
1729696944653789000,8.135788818359375,2.1508920192718506,-9.491893768310547,-1.203336238861084
1729696944663558100,8.14555810546875,2.177710771560669,-9.473572731018066,-1.2959070205688477
1729696944673327400,8.155327392578124,2.1835248470306396,-9.459571838378906,-1.3853232860565186
1729696944683096600,8.1650966796875,2.1747419834136963,-9.447818756103516,-1.4763522148132324
1729696944692865800,8.17486572265625,2.156277894973755,-9.436724662780762,-1.571335792541504
1729696944702635300,8.18463525390625,2.134044647216797,-9.424055099487305,-1.6743414402008057
1729696944712404500,8.194404541015626,2.121326446533203,-9.40707778930664,-1.7824828624725342
1729696944722173700,8.204173583984375,2.1224451065063477,-9.38544750213623,-1.8918182849884033
1729696944731943000,8.21394287109375,2.1346545219421387,-9.36130428314209,-1.9949051141738892
1729696944741712100,8.223712158203124,2.1590116024017334,-9.336811065673828,-2.0815885066986084
1729696944751481300,8.2334814453125,2.1933672428131104,-9.314338684082031,-2.145374298095703
1729696944761250600,8.24325048828125,2.2328171730041504,-9.29616928100586,-2.1831557750701904
1729696944771020000,8.25302001953125,2.2748286724090576,-9.283222198486328,-2.1948394775390625
1729696944780789200,8.262789306640625,2.317432403564453,-9.275527000427246,-2.1827704906463623
1729696944790558500,8.272558349609374,2.3586483001708984,-9.272626876831055,-2.1507115364074707
1729696944800327700,8.28232763671875,2.3969993591308594,-9.273999214172363,-2.1018383502960205
1729696944810097000,8.292096923828124,2.430781602859497,-9.280056953430176,-2.0352463722229004
1729696944819866000,8.3018662109375,2.4565908908843994,-9.291162490844727,-1.9518839120864868
1729696944829635300,8.31163525390625,2.469122886657715,-9.307214736938477,-1.8573001623153687
1729696944839404500,8.321404541015625,2.4645214080810547,-9.327790260314941,-1.757513403892517
1729696944849174000,8.331174072265625,2.436558723449707,-9.35363483428955,-1.6562203168869019
1729696944858943200,8.340943115234374,2.384308338165283,-9.384793281555176,-1.5527812242507935
1729696944868712400,8.35071240234375,2.303694725036621,-9.422422409057617,-1.4426813125610352
1729696944878481700,8.360481689453126,2.2014400959014893,-9.464090347290039,-1.3247804641723633
1729696944888251000,8.3702509765625,2.091111421585083,-9.505722045898438,-1.199539303779602
1729696944898020000,8.38002001953125,1.9781092405319214,-9.544458389282227,-1.077396035194397
1729696944907789300,8.389789306640624,1.91879403591156,-9.56605339050293,-0.9895678758621216
1729696944917558800,8.399558837890625,2.004896879196167,-9.548338890075684,-0.9899516105651855
1729696944927328000,8.409327880859376,2.091165542602539,-9.523576736450195,-1.0482906103134155
1729696944937097200,8.41909716796875,2.1241557598114014,-9.506311416625977,-1.1350795030593872
1729696944946866400,8.428866455078126,2.1310977935791016,-9.490396499633789,-1.2494720220565796
1729696944956635600,8.4386357421875,2.1312074661254883,-9.47253704071045,-1.3781770467758179
1729696944966404900,8.44840478515625,2.1362478733062744,-9.455668449401855,-1.4822909832000732
1729696944976174000,8.458174072265624,2.1458849906921387,-9.442517280578613,-1.5506244897842407
1729696944985943300,8.467943359375,2.15505051612854,-9.43289566040039,-1.5958176851272583
1729696944995712800,8.477712646484376,2.1499714851379395,-9.428747177124023,-1.626876711845398
1729696945005482000,8.48748193359375,2.116344928741455,-9.432910919189453,-1.646712064743042
1729696945015251200,8.497251220703125,2.0485446453094482,-9.446754455566406,-1.653080701828003
1729696945025020400,8.5070205078125,1.949349284172058,-9.470512390136719,-1.6370177268981934
1729696945034789600,8.51678955078125,1.8097941875457764,-9.507429122924805,-1.5823489427566528
1729696945044558800,8.526558837890626,1.6334959268569946,-9.554007530212402,-1.4909814596176147
1729696945054328000,8.536328125,1.4916962385177612,-9.587604522705078,-1.4223417043685913
1729696945064097500,8.54609765625,1.4493318796157837,-9.592697143554688,-1.4317831993103027
1729696945073866800,8.55586669921875,1.4697599411010742,-9.576905250549316,-1.5142912864685059
1729696945083636000,8.565635986328125,1.5213755369186401,-9.550491333007812,-1.6260123252868652
1729696945093405200,8.5754052734375,1.5685583353042603,-9.526740074157715,-1.7179162502288818
1729696945103174400,8.58517431640625,1.5847153663635254,-9.512909889221191,-1.7786600589752197
1729696945112943600,8.594943603515626,1.5397000312805176,-9.516645431518555,-1.7981021404266357
1729696945122712800,8.604712890625,1.43515145778656,-9.536297798156738,-1.78037691116333
1729696945132482000,8.61448193359375,1.3089216947555542,-9.559895515441895,-1.7508567571640015
1729696945142251500,8.62425146484375,1.1915875673294067,-9.580697059631348,-1.72068190574646
1729696945152020700,8.634020751953125,1.0938901901245117,-9.596261978149414,-1.698685646057129
1729696945161790000,8.6437900390625,1.0122781991958618,-9.608596801757812,-1.679447889328003
1729696945171559200,8.65355908203125,0.9353858232498169,-9.620034217834473,-1.6584270000457764
1729696945181328400,8.663328369140626,0.854585587978363,-9.632312774658203,-1.6305320262908936
1729696945191097600,8.67309765625,0.7680349946022034,-9.646044731140137,-1.5919564962387085
1729696945200866800,8.68286669921875,0.6774632334709167,-9.661294937133789,-1.5397443771362305
1729696945210636300,8.69263623046875,0.5866958498954773,-9.677688598632812,-1.4725936651229858
1729696945220405500,8.702405517578125,0.500572144985199,-9.694339752197266,-1.3926892280578613
1729696945230174700,8.7121748046875,0.41124236583709717,-9.711668014526367,-1.2979919910430908
1729696945239944000,8.72194384765625,0.3261004090309143,-9.72638988494873,-1.2088732719421387
1729696945249713200,8.731713134765625,0.24770855903625488,-9.739202499389648,-1.1211466789245605
1729696945259482400,8.741482421875,0.17331461608409882,-9.750080108642578,-1.0374363660812378
1729696945269251600,8.75125146484375,0.10048580914735794,-9.759476661682129,-0.9554671049118042
1729696945279020800,8.761020751953126,0.02415158972144127,-9.767678260803223,-0.8730652332305908
1729696945288790300,8.770790283203125,-0.060296427458524704,-9.774901390075684,-0.7861625552177429
1729696945298559500,8.7805595703125,-0.15350471436977386,-9.780760765075684,-0.6953774690628052
1729696945308328700,8.79032861328125,-0.2520192265510559,-9.7846040725708,-0.6069597005844116
1729696945318098000,8.800097900390625,-0.351583868265152,-9.786489486694336,-0.5209665894508362
1729696945327867100,8.8098671875,-0.44824960827827454,-9.786469459533691,-0.4409940242767334
1729696945337636400,8.81963623046875,-0.5407834649085999,-9.784846305847168,-0.3670518100261688
1729696945347405600,8.829405517578126,-0.6319331526756287,-9.781847953796387,-0.2941024601459503
1729696945357174800,8.8391748046875,-0.7270371317863464,-9.777195930480957,-0.21960973739624023
1729696945366944300,8.8489443359375,-0.8327250480651855,-9.77021598815918,-0.14079256355762482
1729696945376713500,8.85871337890625,-0.9563857316970825,-9.75972843170166,-0.05847246199846268
1729696945386482700,8.868482666015625,-1.1033889055252075,-9.74434757232666,0.024626990780234337
1729696945396252000,8.878251953125,-1.2840310335159302,-9.721639633178711,0.10661688446998596
1729696945406021000,8.888021240234375,-1.5357023477554321,-9.683823585510254,0.18858163058757782
1729696945415790300,8.897790283203125,-1.841544508934021,-9.628436088562012,0.2688988149166107
1729696945425559600,8.9075595703125,-2.128777027130127,-9.566654205322266,0.3432397246360779
1729696945435329000,8.9173291015625,-2.3453903198242188,-9.513263702392578,0.40908220410346985
1729696945445098200,8.92709814453125,-2.4683687686920166,-9.47960376739502,0.46331027150154114
1729696945454867500,8.936867431640625,-2.5004160404205322,-9.468853950500488,0.5090420842170715
1729696945464636700,8.94663671875,-2.470623731613159,-9.474588394165039,0.5464370846748352
1729696945474406000,8.956406005859375,-2.4074928760528564,-9.48902702331543,0.5768318772315979
1729696945484175000,8.966175048828125,-2.336378812789917,-9.50515365600586,0.6031484603881836
1729696945493944300,8.9759443359375,-2.2759666442871094,-9.518277168273926,0.626708447933197
1729696945503713500,8.985713623046875,-2.2340638637542725,-9.526873588562012,0.6465467810630798
1729696945513483000,8.99548291015625,-2.213789939880371,-9.530550956726074,0.6619055271148682
1729696945523252200,9.005252197265625,-2.2176733016967773,-9.528793334960938,0.6740924119949341
1729696945533021400,9.015021484375,-2.2445452213287354,-9.521662712097168,0.6858202815055847
1729696945542790700,9.024790771484374,-2.287325859069824,-9.510537147521973,0.6987242102622986
1729696945552559900,9.034559814453125,-2.3354082107543945,-9.497811317443848,0.7126311659812927
1729696945562329000,9.0443291015625,-2.379687547683716,-9.485673904418945,0.7276510000228882
1729696945572098300,9.054098388671875,-2.413414478302002,-9.476016998291016,0.7422357797622681
1729696945581867800,9.06386767578125,-2.4328653812408447,-9.470147132873535,0.7535632252693176
1729696945591637000,9.073636962890625,-2.4384617805480957,-9.46845531463623,0.7567371726036072
1729696945601406200,9.08340625,-2.434476137161255,-9.470124244689941,0.7486345767974854
1729696945611175400,9.093175537109374,-2.428107500076294,-9.473245620727539,0.7295888662338257
1729696945620944600,9.102944580078125,-2.4268319606781006,-9.475557327270508,0.7033447027206421
1729696945630713900,9.1127138671875,-2.4444234371185303,-9.472688674926758,0.6806979179382324
1729696945640483000,9.122483154296875,-2.485503911972046,-9.461997032165527,0.6806396245956421
1729696945650252300,9.132252197265625,-2.5193283557891846,-9.450897216796875,0.709872305393219
1729696945660021800,9.142021728515624,-2.437669038772583,-9.468880653381348,0.7539682388305664
1729696945669791000,9.151791015625,-2.1861424446105957,-9.528706550598145,0.7713002562522888
1729696945679560200,9.161560302734374,-1.8443366289138794,-9.603394508361816,0.7372957468032837
1729696945689329400,9.171329345703125,-1.4925401210784912,-9.669778823852539,0.6618860960006714
1729696945699098600,9.1810986328125,-1.1678884029388428,-9.720158576965332,0.5700457096099854
1729696945708867800,9.190867919921875,-0.8920730948448181,-9.754515647888184,0.47331854701042175
1729696945718637000,9.200636962890625,-0.6490430235862732,-9.778645515441895,0.35667458176612854
1729696945728406500,9.210406494140624,-0.4100273847579956,-9.796015739440918,0.20086678862571716
1729696945738175700,9.22017578125,-0.16023916006088257,-9.805338859558105,0.007365115452557802
1729696945747945000,9.229945068359376,0.10529079288244247,-9.803977012634277,-0.20330654084682465
1729696945757714200,9.239714111328125,0.3835362493991852,-9.790942192077637,-0.4009344279766083
1729696945767483400,9.2494833984375,0.6602447628974915,-9.767401695251465,-0.5764619708061218
1729696945777252600,9.259252685546874,0.9183710813522339,-9.73723030090332,-0.7164604067802429
1729696945787021800,9.269021728515625,1.1453509330749512,-9.705733299255371,-0.8107268214225769
1729696945796791000,9.278791015625,1.3389906883239746,-9.676692962646484,-0.8597118258476257
1729696945806560500,9.288560546875,1.5014504194259644,-9.650848388671875,-0.8815684914588928
1729696945816329700,9.298329833984376,1.6366510391235352,-9.62658405303955,-0.9058917164802551
1729696945826099000,9.308098876953125,1.7506709098815918,-9.602079391479492,-0.951633095741272
1729696945835868200,9.3178681640625,1.8406907320022583,-9.578696250915527,-1.0153003931045532
1729696945845637400,9.327637451171874,1.9017056226730347,-9.556922912597656,-1.1041393280029297
1729696945855406600,9.337406494140625,1.9323039054870605,-9.537398338317871,-1.2143405675888062
1729696945865176000,9.347176025390626,1.9319947957992554,-9.521011352539062,-1.3372117280960083
1729696945874945300,9.3569453125,1.9030805826187134,-9.507658958435059,-1.467340111732483
1729696945884714500,9.366714599609375,1.8487261533737183,-9.49734878540039,-1.5977975130081177
1729696945894483700,9.376483642578124,1.7784032821655273,-9.48805046081543,-1.727589726448059
1729696945904253000,9.3862529296875,1.7073711156845093,-9.476741790771484,-1.8565092086791992
1729696945914022100,9.396022216796876,1.6505993604660034,-9.461429595947266,-1.981729507446289
1729696945923791400,9.405791259765625,1.6217460632324219,-9.441740989685059,-2.0961554050445557
1729696945933560600,9.415560546875,1.6203736066818237,-9.419975280761719,-2.192906141281128
1729696945943329800,9.425329833984375,1.6348477602005005,-9.398756980895996,-2.2717907428741455
1729696945953099300,9.435099365234375,1.6583267450332642,-9.379779815673828,-2.3323938846588135
1729696945962868500,9.444868408203124,1.6873501539230347,-9.363950729370117,-2.374800443649292
1729696945972637700,9.4546376953125,1.7157238721847534,-9.351966857910156,-2.4015355110168457
1729696945982407000,9.464406982421876,1.7391048669815063,-9.34475040435791,-2.4127883911132812
1729696945992176000,9.474176025390625,1.758726716041565,-9.3427095413208,-2.406456232070923
1729696946001945300,9.4839453125,1.780056357383728,-9.345288276672363,-2.3806207180023193
1729696946011714800,9.49371484375,1.8034621477127075,-9.352088928222656,-2.3358819484710693
1729696946021484000,9.503484130859375,1.824975609779358,-9.363006591796875,-2.2746317386627197
1729696946031253200,9.513253173828126,1.8390556573867798,-9.378032684326172,-2.2001757621765137
1729696946041022500,9.5230224609375,1.8399591445922852,-9.397384643554688,-2.115208148956299
1729696946050791700,9.532791748046876,1.8270113468170166,-9.420649528503418,-2.02083420753479
1729696946060561000,9.542560791015624,1.799664855003357,-9.448040008544922,-1.9147111177444458
1729696946070330000,9.552330078125,1.7568954229354858,-9.47928237915039,-1.7963628768920898
1729696946080099300,9.562099365234374,1.703724980354309,-9.512055397033691,-1.6698850393295288
1729696946089868800,9.571868896484375,1.6546242237091064,-9.54260540008545,-1.5398999452590942
1729696946099638000,9.581637939453126,1.6166421175003052,-9.568740844726562,-1.412814974784851
1729696946109407200,9.5914072265625,1.594977855682373,-9.587885856628418,-1.3034156560897827
1729696946119176400,9.601176513671875,1.623086929321289,-9.59212589263916,-1.2357553243637085
1729696946128945700,9.610945556640624,1.6742644309997559,-9.58335018157959,-1.2355647087097168
1729696946138715000,9.62071484375,1.695212721824646,-9.570629119873047,-1.3037303686141968
1729696946148484000,9.630484130859376,1.6781171560287476,-9.55540943145752,-1.4312490224838257
1729696946158253600,9.640253662109375,1.6556679010391235,-9.532876014709473,-1.5979480743408203
1729696946168022800,9.650022705078126,1.6597322225570679,-9.506710052490234,-1.7430262565612793
1729696946177792000,9.6597919921875,1.681433916091919,-9.485770225524902,-1.8339359760284424
1729696946187561200,9.669561279296875,1.7126991748809814,-9.468789100646973,-1.891847848892212
1729696946197330400,9.679330322265624,1.7413411140441895,-9.455946922302246,-1.9295580387115479
1729696946207099600,9.689099609375,1.7496023178100586,-9.449527740478516,-1.9533847570419312
1729696946216868900,9.698868896484376,1.7205684185028076,-9.452404975891113,-1.9652154445648193
1729696946226638000,9.70863818359375,1.6514687538146973,-9.465656280517578,-1.9607070684432983
1729696946236407600,9.718407470703125,1.5550998449325562,-9.487686157226562,-1.932834506034851
1729696946246176800,9.7281767578125,1.4475517272949219,-9.51451587677002,-1.883866548538208
1729696946255946000,9.737946044921875,1.3773083686828613,-9.533236503601074,-1.8414220809936523
1729696946265715200,9.747715087890626,1.3556280136108398,-9.539214134216309,-1.8264870643615723
1729696946275484400,9.757484375,1.3702787160873413,-9.5366849899292,-1.8287580013275146
1729696946285253600,9.767253662109376,1.4167712926864624,-9.530207633972168,-1.8270992040634155
1729696946295023000,9.777023193359375,1.4895234107971191,-9.520307540893555,-1.8208357095718384
1729696946304792300,9.786792236328125,1.5645314455032349,-9.509532928466797,-1.814223289489746
1729696946314561500,9.7965615234375,1.604849934577942,-9.503536224365234,-1.8104287385940552
1729696946324330800,9.806330810546875,1.5649175643920898,-9.512687683105469,-1.797277808189392
1729696946334100000,9.816099853515626,1.4498636722564697,-9.536953926086426,-1.764879584312439
1729696946343869200,9.825869140625,1.3095630407333374,-9.567525863647461,-1.7081794738769531
1729696946353638400,9.835638427734375,1.1728041172027588,-9.59914779663086,-1.6282809972763062
1729696946363407600,9.84540771484375,1.0646699666976929,-9.62572193145752,-1.543487310409546
1729696946373176800,9.8551767578125,1.005255937576294,-9.641199111938477,-1.485639214515686
1729696946382946300,9.8649462890625,0.9867383241653442,-9.647970199584961,-1.4537594318389893
1729696946392715500,9.874715576171875,0.9798108339309692,-9.653165817260742,-1.4236379861831665
1729696946402484700,9.884484619140625,0.9574743509292603,-9.661232948303223,-1.3835467100143433
1729696946412254000,9.89425390625,0.9120920300483704,-9.67261028289795,-1.3338220119476318
1729696946422023200,9.904023193359375,0.8490612506866455,-9.686029434204102,-1.276841163635254
1729696946431792400,9.91379248046875,0.7752109169960022,-9.699646949768066,-1.219132661819458
1729696946441561900,9.923561767578125,0.6962693929672241,-9.712803840637207,-1.1606179475784302
1729696946451331000,9.9333310546875,0.6177572011947632,-9.723638534545898,-1.113372802734375
1729696946461100300,9.943100341796875,0.5330101251602173,-9.734635353088379,-1.0597877502441406
1729696946470869500,9.952869384765625,0.4493916630744934,-9.744548797607422,-1.0060884952545166
1729696946480638700,9.962638671875,0.3708622455596924,-9.75397777557373,-0.9448702335357666
1729696946490408000,9.972407958984375,0.3011948764324188,-9.763225555419922,-0.871263325214386
1729696946500177200,9.98217724609375,0.24133475124835968,-9.772560119628906,-0.7805033922195435
1729696946509946400,9.9919462890625,0.1843084841966629,-9.78156566619873,-0.6762923002243042
1729696946519715800,10.0017158203125,0.12052394449710846,-9.789306640625,-0.5703784823417664
1729696946529485000,10.011485107421874,0.046340733766555786,-9.795571327209473,-0.46371564269065857
1729696946539254300,10.021254150390625,-0.03609362244606018,-9.800025939941406,-0.35859590768814087
1729696946549023500,10.0310234375,-0.12421846389770508,-9.802488327026367,-0.25729140639305115
1729696946558792700,10.040792724609375,-0.21767641603946686,-9.802943229675293,-0.15910819172859192
1729696946568562000,10.05056201171875,-0.3192635774612427,-9.801261901855469,-0.06093031167984009
1729696946578331100,10.0603310546875,-0.43229299783706665,-9.797041893005371,0.03854808211326599
1729696946588100600,10.0701005859375,-0.5619080662727356,-9.78952693939209,0.14071473479270935
1729696946597869800,10.079869873046874,-0.7129117250442505,-9.777618408203125,0.24562443792819977
1729696946607639000,10.08963916015625,-0.8882997035980225,-9.760180473327637,0.34668904542922974
1729696946617408300,10.099408203125,-1.0946732759475708,-9.735530853271484,0.43762171268463135
1729696946627177500,10.109177490234375,-1.3456522226333618,-9.700119018554688,0.5170186161994934
1729696946636946700,10.11894677734375,-1.6455762386322021,-9.649867057800293,0.5852657556533813
1729696946646716000,10.1287158203125,-1.9662556648254395,-9.585855484008789,0.6446676254272461
1729696946656485000,10.138485107421875,-2.270294427871704,-9.51444149017334,0.7011216878890991
1729696946666254600,10.148254638671874,-2.5306975841522217,-9.444144248962402,0.7576985955238342
1729696946676023800,10.15802392578125,-2.731194496154785,-9.383807182312012,0.8093987107276917
1729696946685793000,10.16779296875,-2.858757734298706,-9.342174530029297,0.8495028614997864
1729696946695562200,10.177562255859375,-2.9101340770721436,-9.32385540008545,0.8759129047393799
1729696946705331500,10.18733154296875,-2.911776065826416,-9.321908950805664,0.891051709651947
1729696946715100700,10.1971005859375,-2.8886406421661377,-9.32806396484375,0.9018585085868835
1729696946724870000,10.206869873046875,-2.8572559356689453,-9.336503028869629,0.9144361615180969
1729696946734639400,10.216639404296876,-2.82576847076416,-9.34435749053955,0.9318867921829224
1729696946744408600,10.22640869140625,-2.793719530105591,-9.351971626281738,0.9519194960594177
1729696946754177800,10.236177734375,-2.7570641040802,-9.360798835754395,0.9718232750892639
1729696946763947000,10.245947021484374,-2.7108123302459717,-9.372136116027832,0.9924410581588745
1729696946773716200,10.25571630859375,-2.6524550914764404,-9.386456489562988,1.0145485401153564
1729696946783485400,10.2654853515625,-2.583054542541504,-9.40349006652832,1.0356543064117432
1729696946793254700,10.275254638671875,-2.5068414211273193,-9.422185897827148,1.0528737306594849
1729696946803024100,10.285024169921876,-2.4320144653320312,-9.440969467163086,1.0600954294204712
1729696946812793300,10.29479345703125,-2.3681609630584717,-9.457972526550293,1.0530779361724854
1729696946822562600,10.3045625,-2.3223142623901367,-9.471006393432617,1.037924885749817
1729696946832331800,10.314331787109374,-2.3006060123443604,-9.477829933166504,1.023884892463684
1729696946842101000,10.32410107421875,-2.296541452407837,-9.479761123657227,1.0151041746139526
1729696946851870200,10.3338701171875,-2.286909818649292,-9.48224925994873,1.0135910511016846
1729696946861639400,10.343639404296875,-2.2448554039001465,-9.492476463317871,1.0118803977966309
1729696946871408600,10.35340869140625,-2.1125714778900146,-9.524415016174316,0.9964712858200073
1729696946881177900,10.363177734375,-1.824522852897644,-9.5884428024292,0.9504004716873169
1729696946890947300,10.372947265625,-1.4452834129333496,-9.661585807800293,0.8574935793876648
1729696946900716500,10.382716552734376,-1.0657285451889038,-9.722119331359863,0.7176390886306763
1729696946910485800,10.39248583984375,-0.7149258255958557,-9.765700340270996,0.5388606190681458
1729696946920255000,10.4022548828125,-0.38764050602912903,-9.793438911437988,0.32965755462646484
1729696946930024200,10.412024169921875,-0.06704709678888321,-9.805930137634277,0.0980999693274498
1729696946939793400,10.42179345703125,0.2526538074016571,-9.802417755126953,-0.13841551542282104
1729696946949563000,10.43156298828125,0.5632879137992859,-9.783589363098145,-0.36671552062034607
1729696946959332000,10.44133203125,0.8514092564582825,-9.752442359924316,-0.5791104435920715
1729696946969101300,10.451101318359376,1.1061840057373047,-9.715408325195312,-0.7467111349105835
1729696946978870500,10.46087060546875,1.3217511177062988,-9.679710388183594,-0.8523896336555481
1729696946988639700,10.4706396484375,1.4960235357284546,-9.65058422088623,-0.893599271774292
1729696946998409000,10.480408935546874,1.6282737255096436,-9.630111694335938,-0.8832125663757324
1729696947008178200,10.49017822265625,1.730044960975647,-9.614998817443848,-0.853882908821106
1729696947017947400,10.499947509765626,1.8188265562057495,-9.599543571472168,-0.8432206511497498
1729696947027716900,10.509716796875,1.9030815362930298,-9.58144760131836,-0.8628593683242798
1729696947037486000,10.519486083984376,1.9797033071517944,-9.561697959899902,-0.9083607792854309
1729696947047255300,10.52925537109375,2.039015293121338,-9.541963577270508,-0.9816937446594238
1729696947057024500,10.5390244140625,2.0794260501861572,-9.523344039916992,-1.073460340499878
1729696947066793700,10.548793701171874,2.105482816696167,-9.505395889282227,-1.1767692565917969
1729696947076563000,10.55856298828125,2.122476577758789,-9.487951278686523,-1.282286286354065
1729696947086332400,10.56833251953125,2.126528024673462,-9.473121643066406,-1.3813905715942383
1729696947096101600,10.5781015625,2.1087911128997803,-9.463876724243164,-1.4691519737243652
1729696947105870800,10.587870849609375,2.067073106765747,-9.460516929626465,-1.5479696989059448
1729696947115640000,10.59764013671875,2.0081286430358887,-9.461304664611816,-1.6191110610961914
1729696947125409300,10.6074091796875,1.9368610382080078,-9.46536922454834,-1.6809947490692139
1729696947135178500,10.617178466796876,1.8594907522201538,-9.471224784851074,-1.7345213890075684
1729696947144947700,10.62694775390625,1.7822893857955933,-9.477269172668457,-1.7819105386734009
1729696947154717000,10.636717041015626,1.71207594871521,-9.480606079101562,-1.8322933912277222
1729696947164486400,10.646486328125,1.6539239883422852,-9.48009967803955,-1.887494683265686
1729696947174255600,10.656255615234375,1.617160439491272,-9.476095199584961,-1.9387651681900024
1729696947184024800,10.66602490234375,1.6010104417800903,-9.470212936401367,-1.9804599285125732
1729696947193794000,10.6757939453125,1.59751296043396,-9.466534614562988,-2.0007688999176025
1729696947203563300,10.685563232421876,1.6008307933807373,-9.468027114868164,-1.9910253286361694
1729696947213332500,10.69533251953125,1.6023589372634888,-9.476447105407715,-1.949299931526184
1729696947223101700,10.705101806640625,1.5975509881973267,-9.490787506103516,-1.882328987121582
1729696947232871200,10.71487109375,1.5872529745101929,-9.50867748260498,-1.7989059686660767
1729696947242640400,10.724640380859375,1.5774717330932617,-9.527650833129883,-1.7046538591384888
1729696947252409600,10.73440966796875,1.5703635215759277,-9.547050476074219,-1.5994257926940918
1729696947262178800,10.7441787109375,1.5701383352279663,-9.5646390914917,-1.4908772706985474
1729696947271948000,10.753947998046876,1.5784599781036377,-9.579459190368652,-1.3830416202545166
1729696947281717200,10.76371728515625,1.6069519519805908,-9.587604522705078,-1.290710210800171
1729696947291486500,10.773486572265625,1.6584080457687378,-9.583992004394531,-1.2518601417541504
1729696947301255700,10.783255615234374,1.6877906322479248,-9.573629379272461,-1.2912589311599731
1729696947311025200,10.793025146484375,1.6926528215408325,-9.556100845336914,-1.4093472957611084
1729696947320794400,10.80279443359375,1.6600890159606934,-9.534940719604492,-1.5809472799301147
1729696947330563600,10.8125634765625,1.5981899499893188,-9.513933181762695,-1.7610336542129517
1729696947340332800,10.822332763671875,1.5616694688796997,-9.489635467529297,-1.9179140329360962
1729696947350102000,10.83210205078125,1.5722981691360474,-9.466179847717285,-2.0223045349121094
1729696947359871200,10.841871337890625,1.6099928617477417,-9.447502136230469,-2.079186201095581
1729696947369640700,10.851640625,1.6566071510314941,-9.434151649475098,-2.1030516624450684
1729696947379410000,10.861409912109375,1.6994659900665283,-9.428679466247559,-2.0933737754821777
1729696947389179100,10.87117919921875,1.7295255661010742,-9.432000160217285,-2.0534119606018066
1729696947398948400,10.8809482421875,1.7340657711029053,-9.444640159606934,-1.990525245666504
1729696947408717600,10.890717529296875,1.7022244930267334,-9.466930389404297,-1.9105106592178345
1729696947418486800,10.90048681640625,1.630149483680725,-9.497427940368652,-1.8198527097702026
1729696947428256000,10.910256103515625,1.528531789779663,-9.529394149780273,-1.7391419410705566
1729696947438025200,10.920025146484376,1.4556925296783447,-9.545743942260742,-1.7117582559585571
1729696947447794700,10.929794677734375,1.4639217853546143,-9.534165382385254,-1.7683334350585938
1729696947457564000,10.93956396484375,1.4978969097137451,-9.513936996459961,-1.8470749855041504
1729696947467333000,10.9493330078125,1.5288541316986084,-9.497442245483398,-1.9056698083877563
1729696947477102300,10.959102294921875,1.5246134996414185,-9.491189956665039,-1.93991219997406
1729696947486871600,10.96887158203125,1.4847731590270996,-9.497604370117188,-1.9394222497940063
1729696947496640800,10.978640869140625,1.4204699993133545,-9.51404094696045,-1.9067461490631104
1729696947506410000,10.988409912109375,1.3532652854919434,-9.533530235290527,-1.8576526641845703
1729696947516179500,10.998179443359374,1.2930978536605835,-9.552742958068848,-1.8009411096572876
1729696947525948700,11.00794873046875,1.2409249544143677,-9.571212768554688,-1.7384980916976929
1729696947535718000,11.0177177734375,1.1931463479995728,-9.588499069213867,-1.6755503416061401
1729696947545487000,11.027487060546875,1.1360664367675781,-9.602373123168945,-1.6352934837341309
1729696947555256300,11.03725634765625,1.0624399185180664,-9.613066673278809,-1.6219005584716797
1729696947565025500,11.047025634765625,0.9639416933059692,-9.623173713684082,-1.6234949827194214
1729696947574794800,11.056794677734375,0.845595121383667,-9.634458541870117,-1.6225179433822632
1729696947584564000,11.06656396484375,0.722382664680481,-9.646597862243652,-1.6098731756210327
1729696947594333400,11.07633349609375,0.6103560328483582,-9.659043312072754,-1.5813716650009155
1729696947604102700,11.0861025390625,0.5187394618988037,-9.672091484069824,-1.5336015224456787
1729696947613871900,11.095871826171875,0.45064547657966614,-9.685775756835938,-1.4673250913619995
1729696947623641000,11.10564111328125,0.40299567580223083,-9.699459075927734,-1.3886985778808594
1729696947633410300,11.115410400390624,0.36847174167633057,-9.712759017944336,-1.3026671409606934
1729696947643179500,11.125179443359375,0.3363661468029022,-9.725282669067383,-1.2149507999420166
1729696947652949000,11.134948974609374,0.2964092791080475,-9.736873626708984,-1.1295161247253418
1729696947662718200,11.14471826171875,0.24251553416252136,-9.747526168823242,-1.0475162267684937
1729696947672487400,11.1544873046875,0.17384542524814606,-9.75732707977295,-0.9668218493461609
1729696947682256600,11.164256591796875,0.09391111880540848,-9.766095161437988,-0.8859843015670776
1729696947692025900,11.17402587890625,0.013657278381288052,-9.774609565734863,-0.7919601798057556
1729696947701795000,11.183795166015624,-0.062835194170475,-9.782792091369629,-0.6807544827461243
1729696947711564300,11.193564208984375,-0.15555697679519653,-9.788016319274902,-0.5838961005210876
1729696947721333500,11.20333349609375,-0.24942266941070557,-9.791016578674316,-0.4941372275352478
1729696947731103000,11.21310302734375,-0.34829142689704895,-9.791824340820312,-0.4114188849925995
1729696947740872200,11.2228720703125,-0.4462364912033081,-9.79090404510498,-0.3308424651622772
1729696947750641400,11.232641357421874,-0.55149906873703,-9.787920951843262,-0.2506554424762726
1729696947760410600,11.24241064453125,-0.6688752174377441,-9.78243350982666,-0.1642647385597229
1729696947770179800,11.252179931640624,-0.8018760681152344,-9.77357006072998,-0.06857240945100784
1729696947779949000,11.261948974609375,-0.9495940804481506,-9.760525703430176,0.02818869799375534
1729696947789718500,11.271718505859376,-1.1128000020980835,-9.742584228515625,0.11878665536642075
1729696947799487700,11.28148779296875,-1.295344352722168,-9.718612670898438,0.2026045024394989
1729696947809257000,11.291257080078125,-1.5011950731277466,-9.68697452545166,0.28163987398147583
1729696947819026200,11.301026123046874,-1.7289167642593384,-9.646517753601074,0.3548668920993805
1729696947828795400,11.31079541015625,-1.955918312072754,-9.600394248962402,0.42094317078590393
1729696947838564600,11.320564697265626,-2.156682014465332,-9.554685592651367,0.4765464663505554
1729696947848333800,11.330333740234375,-2.3201730251312256,-9.51400089263916,0.5205448865890503
1729696947858103000,11.34010302734375,-2.4512534141540527,-9.47928237915039,0.5522448420524597
1729696947867872500,11.34987255859375,-2.5662827491760254,-9.447285652160645,0.5773895978927612
1729696947877641700,11.359641845703125,-2.668386936187744,-9.417224884033203,0.6049524545669556
1729696947887411000,11.369410888671876,-2.74086856842041,-9.394048690795898,0.6402215957641602
1729696947897180200,11.37918017578125,-2.771963357925415,-9.382098197937012,0.6803222298622131
1729696947906949400,11.388949462890626,-2.7641122341156006,-9.381616592407227,0.7178846001625061
1729696947916718600,11.398718505859375,-2.729851245880127,-9.389418601989746,0.7463943362236023
1729696947926487800,11.40848779296875,-2.6829233169555664,-9.40137004852295,0.7658745646476746
1729696947936257300,11.41825732421875,-2.631164789199829,-9.41471004486084,0.781400203704834
1729696947946026500,11.428026611328125,-2.5786972045898438,-9.427781105041504,0.7985372543334961
1729696947955795700,11.437795654296876,-2.5285539627075195,-9.439359664916992,0.821763813495636
1729696947965565000,11.44756494140625,-2.482055425643921,-9.44927978515625,0.8490504026412964
1729696947975334100,11.457334228515625,-2.436220169067383,-9.458890914916992,0.8744245767593384
1729696947985103400,11.467103271484374,-2.38749623298645,-9.469353675842285,0.8953145742416382
1729696947994872600,11.47687255859375,-2.335050344467163,-9.481071472167969,0.9095106720924377
1729696948004642000,11.48664208984375,-2.2854673862457275,-9.492110252380371,0.9202613234519958
1729696948014411300,11.496411376953125,-2.241853713989258,-9.50134563446045,0.932160496711731
1729696948024180500,11.506180419921876,-2.1897032260894775,-9.512237548828125,0.944953441619873
1729696948033949700,11.51594970703125,-2.1068050861358643,-9.530488967895508,0.9494974613189697
1729696948043719000,11.525718994140625,-1.9695390462875366,-9.561969757080078,0.9273862838745117
1729696948053488000,11.535488037109374,-1.7369530200958252,-9.6133394241333,0.8585281372070312
1729696948063257300,11.54525732421875,-1.402298092842102,-9.677759170532227,0.7381988763809204
1729696948073026800,11.55502685546875,-1.0395336151123047,-9.733935356140137,0.5833104252815247
1729696948082796000,11.564796142578125,-0.6746973991394043,-9.77524471282959,0.39968377351760864
1729696948092565200,11.574565185546875,-0.3084486722946167,-9.800030708312988,0.18613854050636292
1729696948102334500,11.58433447265625,0.055295784026384354,-9.806336402893066,-0.05573245882987976
1729696948112103700,11.594103759765625,0.4109046161174774,-9.793342590332031,-0.3033056855201721
1729696948121873000,11.603872802734376,0.7326793074607849,-9.764680862426758,-0.5334674715995789
1729696948131642000,11.61364208984375,1.0167489051818848,-9.727420806884766,-0.716858983039856
1729696948141411600,11.62341162109375,1.2688568830490112,-9.688231468200684,-0.8358144164085388
1729696948151180800,11.633180908203125,1.4816968441009521,-9.653061866760254,-0.8907075524330139
1729696948160950000,11.642949951171875,1.6536831855773926,-9.624679565429688,-0.8951389789581299
1729696948170719200,11.65271923828125,1.7905383110046387,-9.602442741394043,-0.8703094720840454
1729696948180488400,11.662488525390625,1.8976209163665771,-9.58448314666748,-0.8408938050270081
1729696948190257700,11.672257568359376,1.9883153438568115,-9.56692123413086,-0.8312649726867676
1729696948200027000,11.68202685546875,2.0901219844818115,-9.543442726135254,-0.8511574268341064
1729696948209796400,11.69179638671875,2.159618854522705,-9.524823188781738,-0.8855337500572205
1729696948219565600,11.701565673828124,2.2062158584594727,-9.505874633789062,-0.9702252745628357
1729696948229334800,11.711334716796875,2.244839906692505,-9.484098434448242,-1.0876333713531494
1729696948239104000,11.72110400390625,2.244413137435913,-9.467610359191895,-1.2236634492874146
1729696948248873200,11.730873291015625,2.2122750282287598,-9.454184532165527,-1.37645423412323
1729696948258642400,11.740642333984376,2.1532387733459473,-9.44324779510498,-1.5359137058258057
1729696948268412000,11.750411865234375,2.0801119804382324,-9.433565139770508,-1.688599705696106
1729696948278181000,11.76018115234375,2.0051634311676025,-9.424941062927246,-1.8221427202224731
1729696948287950300,11.769950439453124,1.936567783355713,-9.41661262512207,-1.9358471632003784
1729696948297719600,11.779719482421875,1.8884965181350708,-9.405689239501953,-2.033954620361328
1729696948307488800,11.78948876953125,1.8659162521362305,-9.391785621643066,-2.117333173751831
1729696948317258000,11.799258056640625,1.8641191720962524,-9.376067161560059,-2.187422275543213
1729696948327027200,11.809027099609375,1.8745274543762207,-9.360322952270508,-2.245191812515259
1729696948336796400,11.81879638671875,1.8911058902740479,-9.346151351928711,-2.289879560470581
1729696948346566000,11.82856591796875,1.9107261896133423,-9.335503578186035,-2.3168692588806152
1729696948356335000,11.838335205078126,1.932230830192566,-9.329272270202637,-2.324126720428467
1729696948366104300,11.848104248046875,1.9553810358047485,-9.327855110168457,-2.3104097843170166
1729696948375873500,11.85787353515625,1.9782270193099976,-9.331332206726074,-2.276669502258301
1729696948385642800,11.867642822265625,1.9953335523605347,-9.33837890625,-2.2324225902557373
1729696948395412000,11.877411865234375,2.0014641284942627,-9.351579666137695,-2.170827865600586
1729696948405181400,11.887181396484374,2.001887083053589,-9.368432998657227,-2.0964980125427246
1729696948414950700,11.89695068359375,1.9988601207733154,-9.389290809631348,-2.004031181335449
1729696948424720000,11.906719970703126,1.994507908821106,-9.413520812988281,-1.8915469646453857
1729696948434489000,11.916489013671875,1.9913479089736938,-9.439676284790039,-1.759952187538147
1729696948444258300,11.92625830078125,1.9897204637527466,-9.466499328613281,-1.611453652381897
1729696948454027500,11.936027587890624,1.9863660335540771,-9.492341041564941,-1.4560871124267578
1729696948463796700,11.945796630859375,1.974320411682129,-9.515942573547363,-1.3112205266952515
1729696948473566200,11.955566162109376,1.9506932497024536,-9.536253929138184,-1.1937434673309326
1729696948483335400,11.96533544921875,1.9488248825073242,-9.545555114746094,-1.1201927661895752
1729696948493104600,11.975104736328126,1.9488918781280518,-9.545999526977539,-1.1162856817245483
1729696948502873900,11.984873779296874,1.9167494773864746,-9.540701866149902,-1.2130382061004639
1729696948512643000,11.99464306640625,1.8581711053848267,-9.52689266204834,-1.39853835105896
1729696948522412300,12.004412353515624,1.8028594255447388,-9.503064155578613,-1.6161177158355713
1729696948532181500,12.014181396484375,1.7722976207733154,-9.477889060974121,-1.7885651588439941
1729696948541951000,12.023950927734376,1.7694822549819946,-9.456092834472656,-1.90305757522583
1729696948551720200,12.03372021484375,1.7833471298217773,-9.439050674438477,-1.9734153747558594
1729696948561489400,12.043489501953125,1.7927045822143555,-9.429248809814453,-2.01143479347229
1729696948571258600,12.053258544921874,1.7768641710281372,-9.42924976348877,-2.0254342555999756
1729696948581027800,12.06302783203125,1.7242251634597778,-9.44039535522461,-2.0190036296844482
1729696948590797000,12.072797119140626,1.6444908380508423,-9.45934772491455,-1.996695637702942
1729696948600566500,12.08256640625,1.5656849145889282,-9.478818893432617,-1.9674874544143677
1729696948610335700,12.092335693359376,1.560119867324829,-9.481371879577637,-1.959592342376709
1729696948620105000,12.10210498046875,1.6137397289276123,-9.464739799499512,-1.996230959892273
1729696948629874200,12.111874267578125,1.6523276567459106,-9.44532585144043,-2.055727243423462
1729696948639643400,12.121643310546874,1.6924500465393066,-9.42930793762207,-2.0962202548980713
1729696948649412600,12.13141259765625,1.746400237083435,-9.417242050170898,-2.1061899662017822
1729696948659181800,12.141181884765626,1.8189852237701416,-9.403932571411133,-2.104219675064087
1729696948668951300,12.150951416015625,1.8912115097045898,-9.39148235321045,-2.0961318016052246
1729696948678720500,12.160720458984375,1.926118016242981,-9.391583442687988,-2.0636417865753174
1729696948688489700,12.17048974609375,1.886728048324585,-9.417624473571777,-1.9796435832977295
1729696948698259000,12.180259033203125,1.7846448421478271,-9.458040237426758,-1.8790689706802368
1729696948708028200,12.190028076171876,1.6539193391799927,-9.502823829650879,-1.7695417404174805
1729696948717797400,12.19979736328125,1.5064127445220947,-9.548885345458984,-1.6492127180099487
1729696948727566800,12.20956689453125,1.363272786140442,-9.588648796081543,-1.5393723249435425
1729696948737336000,12.219336181640625,1.2428596019744873,-9.616639137268066,-1.4649072885513306
1729696948747105300,12.229105224609375,1.1430050134658813,-9.634819984436035,-1.4262442588806152
1729696948756874500,12.23887451171875,1.0498743057250977,-9.649962425231934,-1.395120620727539
1729696948766643700,12.248643798828125,0.9525185823440552,-9.666461944580078,-1.3500417470932007
1729696948776413000,12.258412841796876,0.856672465801239,-9.68432903289795,-1.2846310138702393
1729696948786182100,12.26818212890625,0.7711224555969238,-9.702765464782715,-1.1967053413391113
1729696948795951400,12.277951416015625,0.6964799761772156,-9.72124195098877,-1.0875492095947266
1729696948805720800,12.287720947265624,0.6294925808906555,-9.736686706542969,-0.9854251146316528
1729696948815490000,12.297489990234375,0.5677185654640198,-9.749090194702148,-0.8962785005569458
1729696948825259300,12.30725927734375,0.5077509880065918,-9.759714126586914,-0.8127496838569641
1729696948835028500,12.317028564453125,0.45028069615364075,-9.769000053405762,-0.7309362888336182
1729696948844797700,12.326797607421875,0.3922901451587677,-9.777414321899414,-0.6470430493354797
1729696948854567200,12.336567138671874,0.32722973823547363,-9.785295486450195,-0.5579360127449036
1729696948864336400,12.34633642578125,0.24988090991973877,-9.79247760772705,-0.4640437662601471
1729696948874105600,12.356105712890624,0.15778817236423492,-9.798479080200195,-0.3678261637687683
1729696948883874800,12.365874755859375,0.0491890087723732,-9.802693367004395,-0.274166464805603
1729696948893644000,12.37564404296875,-0.06811124831438065,-9.804933547973633,-0.1703774482011795
1729696948903413200,12.385413330078125,-0.19179192185401917,-9.804574012756348,-0.06272217631340027
1729696948913182500,12.395182373046875,-0.3197077810764313,-9.801379203796387,0.03388496860861778
1729696948922952000,12.404951904296874,-0.44887688755989075,-9.795496940612793,0.13086752593517303
