time,seconds_elapsed,z,y,x
1729696936594164000,0.0761640625,0.00916270911693573,0.006719320081174374,-0.006108472589403391
1729696936603933200,0.08593310546875,0.00916270911693573,-0.006108472589403391,-0.009773556143045425
1729696936613702400,0.095702392578125,0.009773556143045425,-0.012827792204916477,-0.012216945178806782
1729696936623471600,0.1054716796875,0.009773556143045425,-0.008551862090826035,-0.010995250195264816
1729696936633240800,0.11524072265625,0.00916270911693573,0.0012216945178806782,-0.008551862090826035
1729696936643010000,0.125010009765625,0.00916270911693573,0.008551862090826035,-0.006719320081174374
1729696936652779300,0.134779296875,0.009773556143045425,0.007941014133393764,-0.007330167107284069
1729696936662548500,0.144548583984375,0.009773556143045425,0,-0.009773556143045425
1729696936672318000,0.15431787109375,0.009773556143045425,-0.007941014133393764,-0.011606098152697086
1729696936682087200,0.164087158203125,0.00916270911693573,-0.008551862090826035,-0.01038440316915512
1729696936691856400,0.1738564453125,0.00916270911693573,-0.0024433890357613564,-0.00916270911693573
1729696936701625600,0.18362548828125,0.009773556143045425,0.004886778071522713,-0.007330167107284069
1729696936711394800,0.193394775390625,0.009773556143045425,0.006108472589403391,-0.007330167107284069
1729696936721164000,0.2031640625,0.00916270911693573,0.0024433890357613564,-0.008551862090826035
1729696936730933200,0.212933349609375,0.009773556143045425,-0.0030542362947016954,-0.01038440316915512
1729696936740702500,0.222702392578125,0.00916270911693573,-0.005497625097632408,-0.01038440316915512
1729696936750471700,0.2324716796875,0.00916270911693573,-0.0030542362947016954,-0.00916270911693573
1729696936760241000,0.242240966796875,0.00916270911693573,0.0018325417768210173,-0.007941014133393764
1729696936770010000,0.252010009765625,0.00916270911693573,0.004886778071522713,-0.007330167107284069
1729696936779779300,0.261779296875,0.00916270911693573,0.0024433890357613564,-0.007941014133393764
1729696936789548500,0.271548583984375,0.008551862090826035,-0.0018325417768210173,-0.00916270911693573
1729696936799317800,0.28131787109375,0.00916270911693573,-0.0030542362947016954,-0.009773556143045425
1729696936809087000,0.2910869140625,0.009773556143045425,-0.0018325417768210173,-0.00916270911693573
1729696936818856400,0.3008564453125,0.009773556143045425,0.0006108472589403391,-0.008551862090826035
1729696936828625700,0.310625732421875,0.00916270911693573,0.0024433890357613564,-0.007330167107284069
1729696936838395000,0.320394775390625,0.00916270911693573,0.0024433890357613564,-0.007941014133393764
1729696936848164000,0.3301640625,0.00916270911693573,-0.0006108472589403391,-0.00916270911693573
1729696936857933300,0.339933349609375,0.008551862090826035,-0.0036650835536420345,-0.008551862090826035
1729696936867702500,0.34970263671875,0.00916270911693573,-0.0018325417768210173,-0.00916270911693573
1729696936877471700,0.3594716796875,0.00916270911693573,0,-0.008551862090826035
1729696936887241000,0.369240966796875,0.009773556143045425,0.0024433890357613564,-0.007330167107284069
1729696936897010200,0.37901025390625,0.00916270911693573,0.0018325417768210173,-0.007941014133393764
1729696936906779400,0.388779296875,0.00916270911693573,0,-0.008551862090826035
1729696936916548600,0.398548583984375,0.009773556143045425,-0.0012216945178806782,-0.00916270911693573
1729696936926317800,0.40831787109375,0.008551862090826035,-0.0006108472589403391,-0.007941014133393764
1729696936936087000,0.418087158203125,0.00916270911693573,0.0018325417768210173,-0.007941014133393764
1729696936945856500,0.4278564453125,0.008551862090826035,0.0018325417768210173,-0.007330167107284069
1729696936955625700,0.437625732421875,0.008551862090826035,0.0018325417768210173,-0.007941014133393764
1729696936965395000,0.44739501953125,0.00916270911693573,-0.0006108472589403391,-0.00916270911693573
1729696936975164200,0.4571640625,0.008551862090826035,-0.0030542362947016954,-0.008551862090826035
1729696936984933400,0.466933349609375,0.009773556143045425,-0.0024433890357613564,-0.008551862090826035
1729696936994702600,0.47670263671875,0.009773556143045425,0.0006108472589403391,-0.007941014133393764
1729696937004471800,0.486471923828125,0.00916270911693573,0.0012216945178806782,-0.007941014133393764
1729696937014241000,0.496240966796875,0.00916270911693573,0.0006108472589403391,-0.007941014133393764
1729696937024010200,0.50601025390625,0.00916270911693573,-0.0012216945178806782,-0.008551862090826035
1729696937033779500,0.515779541015625,0.00916270911693573,0.0006108472589403391,-0.007941014133393764
1729696937043548700,0.525548583984375,0.008551862090826035,0.0006108472589403391,-0.008551862090826035
1729696937053318000,0.53531787109375,0.00916270911693573,-0.0012216945178806782,-0.008551862090826035
1729696937063087000,0.545087158203125,0.008551862090826035,-0.0012216945178806782,-0.008551862090826035
1729696937072856300,0.554856201171875,0.008551862090826035,0,-0.008551862090826035
1729696937082625500,0.56462548828125,0.00916270911693573,0.0006108472589403391,-0.008551862090826035
1729696937092395000,0.57439501953125,0.008551862090826035,0.0006108472589403391,-0.008551862090826035
1729696937102164200,0.584164306640625,0.00916270911693573,0.0012216945178806782,-0.007941014133393764
1729696937111933400,0.593933349609375,0.00916270911693573,0.0006108472589403391,-0.007330167107284069
1729696937121702700,0.60370263671875,0.00916270911693573,-0.0018325417768210173,-0.007941014133393764
1729696937131472000,0.613471923828125,0.008551862090826035,-0.0024433890357613564,-0.008551862090826035
1729696937141241000,0.623240966796875,0.00916270911693573,-0.0012216945178806782,-0.008551862090826035
1729696937151010300,0.63301025390625,0.00916270911693573,-0.0006108472589403391,-0.007941014133393764
1729696937160779500,0.642779541015625,0.00916270911693573,0,-0.007330167107284069
1729696937170548700,0.652548828125,0.00916270911693573,0,-0.007941014133393764
1729696937180318000,0.66231787109375,0.009773556143045425,-0.0006108472589403391,-0.008551862090826035
1729696937190087200,0.672087158203125,0.009773556143045425,-0.0012216945178806782,-0.008551862090826035
1729696937199856400,0.6818564453125,0.00916270911693573,-0.0018325417768210173,-0.007941014133393764
1729696937209625600,0.69162548828125,0.00916270911693573,-0.0018325417768210173,-0.008551862090826035
1729696937219394800,0.701394775390625,0.00916270911693573,-0.0012216945178806782,-0.00916270911693573
1729696937229164300,0.711164306640625,0.00916270911693573,0.0006108472589403391,-0.007941014133393764
1729696937238933500,0.72093359375,0.009773556143045425,0.0018325417768210173,-0.007941014133393764
1729696937248702700,0.73070263671875,0.009773556143045425,0,-0.007330167107284069
1729696937258472000,0.740471923828125,0.00916270911693573,-0.0012216945178806782,-0.00916270911693573
1729696937268241200,0.7502412109375,0.009773556143045425,-0.0018325417768210173,-0.008551862090826035
1729696937278010400,0.76001025390625,0.009773556143045425,-0.0018325417768210173,-0.008551862090826035
1729696937287779600,0.769779541015625,0.009773556143045425,-0.0012216945178806782,-0.008551862090826035
1729696937297548800,0.779548828125,0.009773556143045425,-0.0006108472589403391,-0.007941014133393764
1729696937307318000,0.789318115234375,0.009773556143045425,0,-0.007330167107284069
1729696937317087200,0.799087158203125,0.00916270911693573,0,-0.008551862090826035
1729696937326856400,0.8088564453125,0.009773556143045425,-0.0012216945178806782,-0.007941014133393764
1729696937336625700,0.818625732421875,0.00916270911693573,-0.0006108472589403391,-0.009773556143045425
1729696937346395000,0.828394775390625,0.010995250195264816,0.0006108472589403391,-0.00916270911693573
1729696937356164000,0.8381640625,0.009773556143045425,-0.0012216945178806782,-0.008551862090826035
1729696937365933300,0.847933349609375,0.009773556143045425,-0.0018325417768210173,-0.007941014133393764
1729696937375702500,0.85770263671875,0.009773556143045425,-0.0012216945178806782,-0.00916270911693573
1729696937385472000,0.867471923828125,0.00916270911693573,0.0006108472589403391,-0.007941014133393764
1729696937395241200,0.8772412109375,0.009773556143045425,0,-0.008551862090826035
1729696937405010400,0.887010498046875,0.009773556143045425,-0.0030542362947016954,-0.00916270911693573
1729696937414779600,0.896779541015625,0.01038440316915512,-0.0018325417768210173,-0.00916270911693573
1729696937424548900,0.906548828125,0.01038440316915512,-0.0006108472589403391,-0.008551862090826035
1729696937434318000,0.916318115234375,0.009773556143045425,0.0006108472589403391,-0.008551862090826035
1729696937444087300,0.92608740234375,0.00916270911693573,0.0006108472589403391,-0.008551862090826035
1729696937453856500,0.9358564453125,0.00916270911693573,0.0006108472589403391,-0.007941014133393764
1729696937463625700,0.945625732421875,0.00916270911693573,0,-0.008551862090826035
1729696937473395000,0.95539501953125,0.009773556143045425,-0.0018325417768210173,-0.00916270911693573
1729696937483164200,0.9651640625,0.01038440316915512,-0.0024433890357613564,-0.009773556143045425
1729696937492933400,0.974933349609375,0.009773556143045425,-0.0012216945178806782,-0.00916270911693573
1729696937502702600,0.98470263671875,0.00916270911693573,0.0006108472589403391,-0.007941014133393764
1729696937512471800,0.994471923828125,0.00916270911693573,0.0012216945178806782,-0.008551862090826035
1729696937522241000,1.004240966796875,0.009773556143045425,0,-0.008551862090826035
1729696937532010500,1.014010498046875,0.009773556143045425,-0.0018325417768210173,-0.00916270911693573
1729696937541779700,1.02377978515625,0.009773556143045425,-0.0012216945178806782,-0.008551862090826035
1729696937551549000,1.033548828125,0.00916270911693573,0,-0.008551862090826035
1729696937561318100,1.043318115234375,0.009773556143045425,0.0006108472589403391,-0.007941014133393764
1729696937571087400,1.05308740234375,0.008551862090826035,0.0012216945178806782,-0.00916270911693573
1729696937580856600,1.062856689453125,0.00916270911693573,-0.0012216945178806782,-0.00916270911693573
1729696937590625800,1.072625732421875,0.008551862090826035,-0.0036650835536420345,-0.009773556143045425
1729696937600395000,1.08239501953125,0.00916270911693573,-0.0024433890357613564,-0.00916270911693573
1729696937610164200,1.092164306640625,0.00916270911693573,-0.0006108472589403391,-0.008551862090826035
1729696937619933400,1.101933349609375,0.009773556143045425,0.0012216945178806782,-0.007941014133393764
1729696937629702700,1.11170263671875,0.009773556143045425,0.0012216945178806782,-0.008551862090826035
1729696937639471900,1.121471923828125,0.009773556143045425,-0.0018325417768210173,-0.00916270911693573
1729696937649241000,1.131240966796875,0.009773556143045425,-0.004886778071522713,-0.00916270911693573
1729696937659010300,1.14101025390625,0.01038440316915512,-0.0036650835536420345,-0.00916270911693573
1729696937668779500,1.150779541015625,0.01038440316915512,0.0006108472589403391,-0.00916270911693573
1729696937678548700,1.160548828125,0.009773556143045425,0.0036650835536420345,-0.006719320081174374
1729696937688318200,1.170318115234375,0.009773556143045425,0.005497625097632408,-0.007330167107284069
1729696937698087400,1.18008740234375,0.009773556143045425,0.0024433890357613564,-0.007941014133393764
1729696937707856600,1.189856689453125,0.009773556143045425,-0.0012216945178806782,-0.00916270911693573
1729696937717625900,1.1996259765625,0.009773556143045425,-0.004275931045413017,-0.009773556143045425
1729696937727395000,1.20939501953125,0.00916270911693573,-0.0036650835536420345,-0.00916270911693573
1729696937737164300,1.219164306640625,0.009773556143045425,0.0024433890357613564,-0.008551862090826035
1729696937746933500,1.22893359375,0.009773556143045425,0.007330167107284069,-0.006719320081174374
1729696937756702700,1.23870263671875,0.00916270911693573,0.005497625097632408,-0.006719320081174374
1729696937766472000,1.248471923828125,0.009773556143045425,0.0006108472589403391,-0.008551862090826035
1729696937776241200,1.2582412109375,0.009773556143045425,-0.004886778071522713,-0.00916270911693573
1729696937786010400,1.26801025390625,0.00916270911693573,-0.007330167107284069,-0.01038440316915512
1729696937795779600,1.277779541015625,0.009773556143045425,-0.0036650835536420345,-0.009773556143045425
1729696937805548800,1.287548828125,0.009773556143045425,0.0036650835536420345,-0.007330167107284069
1729696937815318000,1.297318115234375,0.01038440316915512,0.008551862090826035,-0.006719320081174374
1729696937825087200,1.307087158203125,0.009773556143045425,0.0036650835536420345,-0.007330167107284069
1729696937834856400,1.3168564453125,0.008551862090826035,-0.006108472589403391,-0.009773556143045425
1729696937844626000,1.3266259765625,0.00916270911693573,-0.011606098152697086,-0.012216945178806782
1729696937854395100,1.33639501953125,0.00916270911693573,-0.008551862090826035,-0.010995250195264816
1729696937864164400,1.346164306640625,0.00916270911693573,0.0030542362947016954,-0.007330167107284069
1729696937873933600,1.35593359375,0.007941014133393764,0.012827792204916477,-0.004275931045413017
1729696937883702800,1.365702880859375,0.009773556143045425,0.009773556143045425,-0.004886778071522713
1729696937893472000,1.375471923828125,0.009773556143045425,-0.0024433890357613564,-0.00916270911693573
1729696937903241200,1.3852412109375,0.00916270911693573,-0.014049487188458443,-0.012827792204916477
1729696937913010400,1.395010498046875,0.00916270911693573,-0.013438640162348747,-0.012827792204916477
1729696937922779600,1.404779541015625,0.00916270911693573,0.0006108472589403391,-0.007941014133393764
1729696937932548900,1.414548828125,0.009773556143045425,0.014660334214568138,-0.004275931045413017
1729696937942318000,1.424318115234375,0.009773556143045425,0.012827792204916477,-0.004886778071522713
1729696937952087300,1.43408740234375,0.008551862090826035,0,-0.008551862090826035
1729696937961856500,1.4438564453125,0.008551862090826035,-0.010995250195264816,-0.011606098152697086
1729696937971625700,1.453625732421875,0.008551862090826035,-0.011606098152697086,-0.011606098152697086
1729696937981395000,1.46339501953125,0.00916270911693573,-0.0012216945178806782,-0.00916270911693573
1729696937991164200,1.4731640625,0.00916270911693573,0.00916270911693573,-0.006719320081174374
1729696938000933400,1.482933349609375,0.00916270911693573,0.00916270911693573,-0.006108472589403391
1729696938010702800,1.492702880859375,0.00916270911693573,-0.0012216945178806782,-0.008551862090826035
1729696938020472000,1.50247216796875,0.008551862090826035,-0.009773556143045425,-0.012216945178806782
1729696938030241300,1.5122412109375,0.00916270911693573,-0.008551862090826035,-0.012216945178806782
1729696938040010500,1.522010498046875,0.009773556143045425,0.0024433890357613564,-0.007941014133393764
1729696938049779700,1.53177978515625,0.009773556143045425,0.012216945178806782,-0.005497625097632408
1729696938059549000,1.541548828125,0.009773556143045425,0.055587101727724075,0
1729696938069318100,1.551318115234375,0.00916270911693573,0.10201149433851242,0.004886778071522713
1729696938079087400,1.56108740234375,0.00916270911693573,0.004886778071522713,-0.014660334214568138
1729696938088856600,1.570856689453125,0.008551862090826035,0.008551862090826035,-0.014660334214568138
1729696938098625800,1.580625732421875,0.008551862090826035,0.006719320081174374,-0.01710372418165207
1729696938108395000,1.59039501953125,0.008551862090826035,0.006108472589403391,-0.01710372418165207
1729696938118164200,1.600164306640625,0.008551862090826035,0.006719320081174374,-0.012216945178806782
1729696938127933400,1.609933349609375,0.00916270911693573,0.0036650835536420345,-0.014049487188458443
1729696938137702700,1.61970263671875,0.009773556143045425,0.0012216945178806782,-0.007330167107284069
1729696938147472000,1.629471923828125,0.00916270911693573,-0.00916270911693573,-0.007330167107284069
1729696938157241000,1.639240966796875,0.008551862090826035,-0.02626643143594265,-0.013438640162348747
1729696938167010300,1.64901025390625,0.00916270911693573,-0.004886778071522713,-0.012216945178806782
1729696938176779800,1.65877978515625,0.00916270911693573,-0.0006108472589403391,-0.00916270911693573
1729696938186549000,1.668549072265625,0.00916270911693573,-0.0018325417768210173,-0.004886778071522713
1729696938196318200,1.678318115234375,0.009773556143045425,0.0018325417768210173,0.02626643143594265
1729696938206087400,1.68808740234375,0.023823043331503868,-0.01588202826678753,0.04337015375494957
1729696938215856600,1.697856689453125,0.16370706260204315,-0.10934165865182877,0.012216945178806782
1729696938225625900,1.7076259765625,0.37383851408958435,-0.21685077250003815,-0.09407047927379608
1729696938235395000,1.71739501953125,0.5265503525733948,-0.3164188861846924,-0.3439069986343384
1729696938245164300,1.727164306640625,0.5803049206733704,-0.4196520745754242,-0.6267293095588684
1729696938254933500,1.73693359375,0.5002838969230652,-0.469741553068161,-0.818535327911377
1729696938264702700,1.74670263671875,0.2901524603366852,-0.4825693368911743,-0.8600729703903198
1729696938274472000,1.756471923828125,0.08612946420907974,-0.5638120174407959,-0.8276980519294739
1729696938284241200,1.7662412109375,0.015271181240677834,-0.7299624681472778,-0.8356390595436096
1729696938294010400,1.77601025390625,0.07024743407964706,-0.9804098606109619,-0.9382613897323608
1729696938303779600,1.785779541015625,0.20280128717422485,-1.178935170173645,-1.1117420196533203
1729696938313548800,1.795548828125,0.33230090141296387,-1.2650647163391113,-1.3292036056518555
1729696938323318000,1.805318115234375,0.38910970091819763,-1.4661097526550293,-1.5913335084915161
1729696938333087500,1.81508740234375,0.3787252902984619,-1.7831394672393799,-1.8326181173324585
1729696938342856700,1.824856689453125,0.395218163728714,-2.075735330581665,-1.9951034784317017
1729696938352626000,1.8346259765625,0.4819584786891937,-2.2791473865509033,-2.0018227100372314
1729696938362395100,1.84439501953125,0.5864133834838867,-2.3988735675811768,-1.806351661682129
1729696938372164400,1.854164306640625,0.5320479869842529,-2.44041109085083,-1.395862340927124
1729696938381933600,1.86393359375,0.3561239540576935,-2.6419906616210938,-0.9284878373146057
1729696938391702800,1.873702880859375,0.21868331730365753,-2.8985466957092285,-0.5583143830299377
1729696938401472000,1.883471923828125,0.12461283802986145,-2.9009900093078613,-0.2901524603366852
1729696938411241200,1.8932412109375,0.029320668429136276,-2.6725330352783203,-0.09345962852239609
1729696938421010400,1.903010498046875,-0.0787992998957634,-2.4434654712677,0.07513421028852463
1729696938430779600,1.912779541015625,-0.15393351018428802,-2.1862986087799072,0.1698155403137207
1729696938440548900,1.922548828125,-0.1979145109653473,-1.7086161375045776,0.05864133685827255
1729696938450318000,1.932318115234375,-0.3017585575580597,-1.3616548776626587,-0.11606097966432571
1729696938460087300,1.94208740234375,-0.4037700295448303,-0.7660024762153625,-0.29442837834358215
1729696938469856500,1.9518564453125,-0.5112791657447815,-0.08979454636573792,-0.28098973631858826
1729696938479626000,1.9616259765625,-0.5381564497947693,0.444085955619812,-0.0922379344701767
1729696938489395200,1.971395263671875,-0.3811686933040619,0.7983773946762085,0.05070032179355621
1729696938499164400,1.981164306640625,-0.1710372269153595,1.0445488691329956,0.05619794875383377
1729696938508933600,1.99093359375,-0.021990500390529633,1.1593880653381348,-0.056808795779943466
1729696938518702800,2.000702880859375,0.11483928561210632,1.0714260339736938,-0.1557660549879074
1729696938528472000,2.01047216796875,0.288930743932724,0.70308518409729,-0.11911521852016449
1729696938538241300,2.0202412109375,0.4691306948661804,0.30664533376693726,0.0390942245721817
1729696938548010500,2.030010498046875,0.6395570635795593,-0.014660334214568138,0.17348061501979828
1729696938557779700,2.03977978515625,0.8551861643791199,-0.3946073353290558,0.2376195788383484
1729696938567549000,2.049548828125,1.1044118404388428,-0.7440119385719299,0.26816195249557495
1729696938577318100,2.059318115234375,1.3285927772521973,-1.0934165716171265,0.2742704153060913
1729696938587087400,2.06908740234375,1.5076473951339722,-1.4392324686050415,0.2602209448814392
1729696938596856600,2.078856689453125,1.6194324493408203,-1.7177788019180298,0.24556060135364532
1729696938606625800,2.088625732421875,1.6683002710342407,-1.8912594318389893,0.2522799074649811
1729696938616395000,2.09839501953125,1.6536399126052856,-1.9272994995117188,0.2907632887363434
1729696938626164500,2.10816455078125,1.5601803064346313,-1.825287938117981,0.34940463304519653
1729696938635933700,2.11793359375,1.4435083866119385,-1.6114914417266846,0.390942245721817
1729696938645703000,2.127702880859375,1.321873426437378,-1.3414969444274902,0.4031592011451721
1729696938655472000,2.13747216796875,1.1343433856964111,-1.077534556388855,0.3402419090270996
1729696938665241300,2.147241455078125,0.8399149775505066,-0.8509102463722229,0.18753011524677277
1729696938675010600,2.157010498046875,0.4947862923145294,-0.6878139972686768,-0.01954711228609085
1729696938684779800,2.16677978515625,0.16737215220928192,-0.5656445622444153,-0.21501824259757996
1729696938694549000,2.176549072265625,-0.026877280324697495,-0.40193748474121094,-0.31825143098831177
1729696938704318200,2.186318115234375,-0.08796200156211853,-0.19180603325366974,-0.29748260974884033
1729696938714087400,2.19608740234375,-0.11239589750766754,0.02076880633831024,-0.17775654792785645
1729696938723856600,2.205856689453125,-0.13682979345321655,0.15393351018428802,-0.03176405653357506
1729696938733625900,2.2156259765625,-0.13927318155765533,0.17409147322177887,0.05497625470161438
1729696938743395000,2.22539501953125,-0.10934165865182877,0.21807247400283813,0.0525328628718853
1729696938753164300,2.235164306640625,-0.055587101727724075,0.3921639323234558,-0.06047387793660164
1729696938762933800,2.244933837890625,-0.021379653364419937,0.5632011890411377,-0.25777754187583923
1729696938772703000,2.254702880859375,0.016492875292897224,0.5790832042694092,-0.4324798583984375
1729696938782472200,2.26447216796875,0.09407047927379608,0.6022953987121582,-0.4984513521194458
1729696938792241400,2.274241455078125,0.1582094430923462,0.6053496599197388,-0.41354358196258545
1729696938802010600,2.2840107421875,0.20341213047504425,0.5888567566871643,-0.23090025782585144
1729696938811779800,2.29377978515625,0.3268032968044281,0.5870242118835449,-0.03787253051996231
1729696938821549000,2.303549072265625,0.420873761177063,0.6114581227302551,0.08674030750989914
1729696938831318300,2.313318359375,0.3836120665073395,0.5473191738128662,0.08551861345767975
1729696938841087500,2.32308740234375,0.22601348161697388,0.45141613483428955,-0.043981000781059265
1729696938850856700,2.332856689453125,0.03787253051996231,0.44103172421455383,-0.265718549489975
1729696938860626000,2.3426259765625,-0.0916270911693573,0.5332696437835693,-0.4953971207141876
1729696938870395100,2.35239501953125,-0.14904673397541046,0.7238540053367615,-0.6132906675338745
1729696938880164400,2.362164306640625,-0.2357870489358902,0.9828532338142395,-0.5833591222763062
1729696938889933600,2.37193359375,-0.367730051279068,1.273005723953247,-0.4343124032020569
1729696938899703000,2.381703125,-0.4459185004234314,1.3983057737350464,-0.24250635504722595
1729696938909472300,2.39147216796875,-0.3512371778488159,1.313321590423584,-0.05925218388438225
1729696938919241500,2.401241455078125,-0.22601348161697388,1.2100883722305298,0.07513421028852463
1729696938929010700,2.4110107421875,-0.13988402485847473,0.9950701594352722,0.17775654792785645
1729696938938780000,2.42077978515625,-0.061084724962711334,0.5638120174407959,0.2473931461572647
1729696938948549000,2.430549072265625,0.006108472589403391,0.24128466844558716,0.27854636311531067
1729696938958318300,2.440318359375,0.005497625097632408,0.14660334587097168,0.3029802441596985
1729696938968087600,2.450087646484375,-0.021379653364419937,0.12461283802986145,0.33291175961494446
1729696938977856800,2.459856689453125,-0.01954711228609085,0.15026842057704926,0.4031592011451721
1729696938987626000,2.4696259765625,-0.08246438205242157,0.2583884000778198,0.5454866290092468
1729696938997395200,2.479395263671875,-0.15271180868148804,0.34940463304519653,0.7660024762153625
1729696939007164400,2.489164306640625,-0.2241809368133545,0.3897205591201782,0.9926267862319946
1729696939016933600,2.49893359375,-0.418430358171463,0.4159869849681854,1.2198619842529297
1729696939026703000,2.508703125,-0.739736020565033,0.31092125177383423,1.4526711702346802
1729696939036472300,2.518472412109375,-0.9517000317573547,0.07391251623630524,1.6133239269256592
1729696939046241500,2.528241455078125,-0.9168817400932312,-0.20341213047504425,1.6768521070480347
1729696939056010800,2.5380107421875,-0.7702783942222595,-0.39766156673431396,1.700675129890442
1729696939065780000,2.547780029296875,-0.6426113247871399,-0.5741963982582092,1.7159463167190552
1729696939075549200,2.557549072265625,-0.5760289430618286,-0.7843278646469116,1.6615809202194214
1729696939085318400,2.567318359375,-0.5234960913658142,-0.9633061289787292,1.604161262512207
1729696939095087600,2.577087646484375,-0.499673068523407,-1.081810474395752,1.6121022701263428
1729696939104856800,2.58685693359375,-0.5430431962013245,-1.087918996810913,1.6762412786483765
1729696939114626000,2.5966259765625,-0.6749862432479858,-1.1044118404388428,1.753208041191101
1729696939124395300,2.606395263671875,-0.8661814332008362,-1.1685508489608765,1.7953563928604126
1729696939134164500,2.61616455078125,-0.9492566585540771,-1.1581664085388184,1.8393374681472778
1729696939143933700,2.62593359375,-1.0335536003112793,-1.087918996810913,1.8857618570327759
1729696939153703000,2.635702880859375,-1.1935955286026,-1.0873081684112549,1.9126391410827637
1729696939163472100,2.64547216796875,-1.2949961423873901,-1.1166287660598755,1.867436408996582
1729696939173241600,2.65524169921875,-1.3378318548202515,-1.0213366746902466,1.7422127723693848
1729696939183010800,2.6650107421875,-1.4025816917419434,-0.9016105532646179,1.625540852546692
1729696939192780000,2.674780029296875,-1.4850460290908813,-0.8411366939544678,1.538800597190857
1729696939202549200,2.68454931640625,-1.525972843170166,-0.8289197087287903,1.4221287965774536
1729696939212318500,2.694318359375,-1.5137559175491333,-0.7971556782722473,1.2406307458877563
1729696939222087700,2.704087646484375,-1.478326678276062,-0.730573296546936,1.0109522342681885
1729696939231857000,2.71385693359375,-1.4270155429840088,-0.684759795665741,0.7934905886650085
1729696939241626000,2.723626220703125,-1.35798978805542,-0.6627692580223083,0.6468872427940369
1729696939251395300,2.733395263671875,-1.2968287467956543,-0.6676560640335083,0.573585569858551
1729696939261164500,2.74316455078125,-1.2748382091522217,-0.5943543910980225,0.5351021885871887
1729696939270933800,2.752933837890625,-1.2919420003890991,-0.3958290219306946,0.5118899941444397
1729696939280703000,2.762702880859375,-1.2888877391815186,-0.20280128717422485,0.49051034450531006
1729696939290472400,2.772472412109375,-1.23940908908844,-0.10262233763933182,0.4581354558467865
1729696939300241700,2.78224169921875,-1.1673290729522705,-0.02076880633831024,0.416597843170166
1729696939310011000,2.792010986328125,-1.0799779891967773,0.04337015375494957,0.3530697226524353
1729696939319780000,2.801780029296875,-0.9639169573783875,0.061084724962711334,0.28160059452056885
1729696939329549300,2.81154931640625,-0.8423583507537842,0.02626643143594265,0.21929416060447693
1729696939339318500,2.821318603515625,-0.7421793937683105,-0.02870982140302658,0.1832541823387146
1729696939349087700,2.831087646484375,-0.6603258848190308,-0.10811996459960938,0.16676130890846252
1729696939358857000,2.84085693359375,-0.6047387719154358,-0.18081079423427582,0.16859383881092072
1729696939368626200,2.850626220703125,-0.5864133834838867,-0.19058434665203094,0.1844758689403534
1729696939378395400,2.8603955078125,-0.5699204802513123,-0.15454435348510742,0.21685077250003815
1729696939388164600,2.87016455078125,-0.5607577562332153,-0.17958909273147583,0.2516690790653229
1729696939397934000,2.87993408203125,-0.5601469278335571,-0.20219044387340546,0.27976804971694946
1729696939407703300,2.889703369140625,-0.5534276366233826,-0.1325538605451584,0.28404396772384644
1729696939417472500,2.899472412109375,-0.5491516590118408,-0.009773556143045425,0.27976804971694946
1729696939427241700,2.90924169921875,-0.5369347333908081,0.02993151545524597,0.2901524603366852
1729696939437011000,2.919010986328125,-0.5192201733589172,0.008551862090826035,0.3023693859577179
1729696939446780200,2.9287802734375,-0.4947862923145294,-0.0030542362947016954,0.2877090573310852
1729696939456549400,2.93854931640625,-0.46302223205566406,-0.004275931045413017,0.25289076566696167
1729696939466318600,2.948318603515625,-0.4343124032020569,0.01710372418165207,0.22479179501533508
1729696939476087800,2.958087890625,-0.37383851408958435,0.05925218388438225,0.1979145109653473
1729696939485857000,2.96785693359375,-0.30664533376693726,0.10262233763933182,0.1588202863931656
1729696939495626200,2.977626220703125,-0.23334364593029022,0.18814095854759216,0.10811996459960938
1729696939505395700,2.987395751953125,-0.17348061501979828,0.2644968628883362,0.047646086663007736
1729696939515165000,2.9971650390625,-0.1453816443681717,0.30847787857055664,-0.0036650835536420345
1729696939524934100,3.00693408203125,-0.12400199472904205,0.3555130958557129,-0.03176405653357506
1729696939534703400,3.016703369140625,-0.129499614238739,0.39827242493629456,-0.016492875292897224
1729696939544472600,3.02647265625,-0.1301104724407196,0.40254834294319153,0.02870982140302658
1729696939554241800,3.03624169921875,-0.1459924876689911,0.3432961702346802,0.07207997888326645
1729696939564011000,3.046010986328125,-0.16370706260204315,0.261442631483078,0.11545012891292572
1729696939573780200,3.0557802734375,-0.1557660549879074,0.16553960740566254,0.15149012207984924
1729696939583549400,3.065549560546875,-0.10689827054738998,0.06841489672660828,0.17286977171897888
1729696939593318700,3.075318603515625,-0.05070032179355621,-0.010995250195264816,0.182643324136734
1729696939603088000,3.085087890625,-0.023823043331503868,-0.03176405653357506,0.17225892841815948
1729696939612857000,3.094857177734375,-0.029320668429136276,-0.007941014133393764,0.14660334587097168
1729696939622626300,3.104626220703125,-0.05864133685827255,0.061084724962711334,0.12461283802986145
1729696939632395800,3.114395751953125,-0.09773556143045425,0.20280128717422485,0.11300674080848694
1729696939642165000,3.1241650390625,-0.13499724864959717,0.40987852215766907,0.10262233763933182
1729696939651934200,3.133934326171875,-0.1692046970129013,0.5790832042694092,0.05864133685827255
1729696939661703400,3.143703369140625,-0.21440738439559937,0.6823163628578186,-0.02626643143594265
1729696939671472600,3.15347265625,-0.2644968628883362,0.8032641410827637,-0.11117420345544815
1729696939681241900,3.163241943359375,-0.2852656841278076,0.943759024143219,-0.16859383881092072
1729696939691011000,3.173010986328125,-0.2504473626613617,1.0531007051467896,-0.20585553348064423
1729696939700780300,3.1827802734375,-0.17348061501979828,1.1459494829177856,-0.21990501880645752
1729696939710549500,3.192549560546875,-0.07085828483104706,1.295607089996338,-0.2229592502117157
1729696939720318700,3.202318603515625,0.06352811306715012,1.5901117324829102,-0.2761029601097107
1729696939730088200,3.212088134765625,0.1850867122411728,2.0445821285247803,-0.4282039403915405
1729696939739857400,3.221857421875,0.1954711228609085,2.579073429107666,-0.7336275577545166
1729696939749626600,3.231626708984375,0.08857285231351852,3.307203531265259,-1.2699514627456665
1729696939759395800,3.241395751953125,-0.03787253051996231,4.12214994430542,-2.1472043991088867
1729696939769165000,3.2511650390625,-0.24372805655002594,4.464224338531494,-2.8576197624206543
1729696939778934300,3.260934326171875,-0.3646758198738098,4.968784332275391,-3.5179457664489746
1729696939788703500,3.270703369140625,-0.4563029110431671,5.573523044586182,-4.144140720367432
1729696939798472700,3.28047265625,-0.5943543910980225,6.0903000831604,-4.777589321136475
1729696939808242000,3.290241943359375,-0.7916580438613892,6.44703483581543,-5.401264190673828
1729696939818011100,3.30001123046875,-0.9486457705497742,6.701834201812744,-5.914986610412598
1729696939827780600,3.309780517578125,-1.0060654878616333,6.9779372215271,-6.190478801727295
1729696939837549800,3.3195498046875,-0.9584193229675293,7.168521881103516,-6.260115623474121
1729696939847319000,3.329319091796875,-0.8002098798751831,7.090332984924316,-6.133669853210449
1729696939857088300,3.339088134765625,-0.5931326746940613,6.797126293182373,-5.798925876617432
1729696939866857500,3.348857421875,-0.43614494800567627,6.454364776611328,-5.329794883728027
1729696939876626700,3.358626708984375,-0.4190412163734436,6.116566181182861,-4.872270584106445
1729696939886396000,3.36839599609375,-0.546097457408905,5.768383502960205,-4.558905601501465
1729696939896165000,3.3781650390625,-0.8038749694824219,5.4715118408203125,-4.411080837249756
1729696939905934300,3.387934326171875,-1.2058124542236328,5.192965030670166,-4.382370948791504
1729696939915703600,3.39770361328125,-1.63592529296875,4.847225666046143,-4.384814262390137
1729696939925472800,3.40747265625,-1.9303536415100098,4.438569068908691,-4.326783657073975
1729696939935242000,3.417241943359375,-2.0604641437530518,4.020749568939209,-4.191786766052246
1729696939945011500,3.427011474609375,-2.0635182857513428,3.6242332458496094,-4.032355308532715
1729696939954780700,3.43678076171875,-1.9926601648330688,3.2656657695770264,-3.889951705932617
1729696939964550000,3.4465498046875,-1.8704906702041626,3.0408740043640137,-3.781831741333008
1729696939974319000,3.456319091796875,-1.7422127723693848,3.0231595039367676,-3.7152493000030518
1729696939984088300,3.46608837890625,-1.664635181427002,3.134333610534668,-3.677987813949585
1729696939993857500,3.475857421875,-1.644477128982544,3.2723851203918457,-3.6107945442199707
1729696940003626800,3.485626708984375,-1.6157673597335815,3.3346915245056152,-3.4715213775634766
1729696940013396000,3.49539599609375,-1.5003172159194946,3.160600185394287,-3.265054941177368
1729696940023165200,3.505165283203125,-1.2314680814743042,2.6639811992645264,-3.027435302734375
1729696940032934700,3.5149345703125,-0.8002098798751831,1.9560092687606812,-2.770268678665161
1729696940042704000,3.524703857421875,-0.27915719151496887,1.3353121280670166,-2.5112693309783936
1729696940052473000,3.53447314453125,0.2217375487089157,1.0421054363250732,-2.2736499309539795
1729696940062242300,3.5442421875,0.5974085927009583,1.165496587753296,-2.061685800552368
1729696940072011500,3.554011474609375,0.8301414251327515,1.5925551652908325,-1.8460568189620972
1729696940081780700,3.56378076171875,0.9804098606109619,2.0916173458099365,-1.5925551652908325
1729696940091550000,3.573550048828125,1.1221264600753784,2.4733970165252686,-1.2852226495742798
1729696940101319200,3.583319091796875,1.2662863731384277,2.7690470218658447,-0.7855495810508728
1729696940111088400,3.59308837890625,1.152668833732605,4.412302494049072,1.1685508489608765
1729696940120857600,3.602857666015625,0.8948912620544434,5.117220401763916,2.5460877418518066
1729696940130626800,3.612626708984375,0.9779664874076843,3.8160390853881836,1.900422215461731
1729696940140396300,3.622396240234375,1.483824372291565,2.6926910877227783,1.1001359224319458
1729696940150165500,3.63216552734375,2.0109856128692627,1.719611406326294,0.8020424246788025
1729696940159934700,3.641934814453125,2.0885632038116455,1.054322361946106,0.9022213816642761
1729696940169704000,3.651703857421875,1.9437923431396484,0.8539644479751587,1.0048437118530273
1729696940179473200,3.66147314453125,1.7080053091049194,0.7934905886650085,0.9455915689468384
1729696940189242400,3.671242431640625,1.5137559175491333,0.7556180357933044,0.9064973592758179
1729696940199011600,3.681011474609375,1.4093009233474731,0.6627692580223083,0.8258655071258545
1729696940208780800,3.69078076171875,1.3029371500015259,0.4330907166004181,0.5265503525733948
1729696940218550000,3.700550048828125,1.1404517889022827,0.12278030067682266,0.16431790590286255
1729696940228319500,3.710319580078125,0.9779664874076843,-0.2211267054080963,-0.13744063675403595
1729696940238088700,3.720088623046875,0.9657495021820068,-0.45324867963790894,-0.33230090141296387
1729696940247858000,3.72985791015625,0.9150491952896118,-0.3280249834060669,-0.49051034450531006
1729696940257627100,3.739627197265625,0.790436327457428,0.4459185004234314,-0.5662553906440735
1729696940267396400,3.749396240234375,0.5668662786483765,1.2168077230453491,-0.342074453830719
1729696940277165600,3.75916552734375,0.36039987206459045,0.883895993232727,0.02748812735080719
1729696940286934800,3.768934814453125,0.30603447556495667,-0.07024743407964706,0.12094775587320328
1729696940296704000,3.7787041015625,0.45508119463920593,-0.841747522354126,-0.10689827054738998
1729696940306473200,3.78847314453125,0.6114581227302551,-1.3017154932022095,-0.3549022674560547
1729696940316242700,3.79824267578125,0.7385143637657166,-1.5840033292770386,-0.5381564497947693
1729696940326012000,3.808011962890625,0.6823163628578186,-1.6585266590118408,-0.7317950129508972
1729696940335781000,3.817781005859375,0.43736663460731506,-1.761759877204895,-0.7556180357933044
1729696940345550300,3.82755029296875,0.06413896381855011,-1.9896059036254883,-0.5008947253227234
1729696940355319600,3.837319580078125,-0.10995250940322876,-2.6157243251800537,-0.04214845970273018
1729696940365088800,3.8470888671875,-0.11361759155988693,-2.813638925552368,0.2779355049133301
1729696940374858000,3.85685791015625,-0.19913621246814728,-2.7201790809631348,0.24494975805282593
1729696940384627200,3.866627197265625,-0.26938363909721375,-2.8344075679779053,0.24372805655002594
1729696940394396400,3.876396484375,-0.3921639323234558,-2.465456008911133,0.2999260127544403
1729696940404165600,3.88616552734375,-0.34818294644355774,-2.0415279865264893,0.4367557764053345
1729696940413935000,3.89593505859375,-0.2522799074649811,-1.6902906894683838,0.7324058413505554
1729696940423704300,3.905704345703125,-0.1954711228609085,-1.2681188583374023,1.1581664085388184
1729696940433473500,3.9154736328125,-0.12705622613430023,-0.8655705451965332,1.505814790725708
1729696940443242800,3.92524267578125,-0.023212196305394173,-0.5980194807052612,1.640201210975647
1729696940453012000,3.935011962890625,0.11300674080848694,-0.37200596928596497,1.5565152168273926
1729696940462781200,3.94478125,0.20157960057258606,-0.418430358171463,1.3805911540985107
1729696940472550400,3.95455029296875,0.2510582208633423,-0.7721109390258789,1.2870551347732544
1729696940482319600,3.964319580078125,0.3176405727863312,-0.9297095537185669,1.3169866800308228
1729696940492089000,3.974089111328125,0.4037700295448303,-0.6817055344581604,1.3940298557281494
1729696940501858300,3.9838583984375,0.4703523814678192,-0.40071579813957214,1.52475106716156
1729696940511627500,3.99362744140625,0.43981003761291504,-0.3384093940258026,1.757483959197998
1729696940521396700,4.003396728515625,0.3164188861846924,-0.4978405237197876,2.0140397548675537
1729696940531166000,4.013166015625,0.10201149433851242,-0.8570187091827393,2.1691949367523193
1729696940540935200,4.02293505859375,-0.11972606182098389,-1.2980504035949707,2.188131332397461
1729696940550704400,4.032704345703125,-0.3524588644504547,-1.8662147521972656,2.10688853263855
1729696940560473600,4.0424736328125,-0.6303943991661072,-2.3958191871643066,2.0213699340820312
1729696940570242800,4.052242919921875,-0.8796200752258301,-2.5949554443359375,2.008542060852051
1729696940580012000,4.062011962890625,-0.9345963001251221,-2.3744397163391113,1.9676153659820557
1729696940589781500,4.071781494140625,-0.6768187880516052,-1.2699514627456665,1.64569890499115
1729696940599550700,4.08155078125,-0.16126367449760437,0.49295374751091003,1.0396620035171509
1729696940609320000,4.09131982421875,0.26877278089523315,1.2840009927749634,0.6120689511299133
1729696940619089200,4.101089111328125,0.48012593388557434,1.1752700805664062,0.41293275356292725
1729696940628858400,4.1108583984375,0.605960488319397,0.8148702383041382,0.30969956517219543
1729696940638627600,4.120627685546875,0.6694886088371277,0.4214846193790436,0.24617144465446472
1729696940648396800,4.130396728515625,0.5772506594657898,0.18753011524677277,0.17286977171897888
1729696940658166000,4.140166015625,0.3762819170951843,0.14171656966209412,0.08429691940546036
1729696940667935500,4.149935546875,0.182643324136734,0.20646637678146362,-0.007330167107284069
1729696940677704700,4.15970458984375,0.014660334214568138,0.22662433981895447,-0.12155860662460327
1729696940687474000,4.169473876953125,-0.21257483959197998,0.17225892841815948,-0.25289076566696167
1729696940697243100,4.1792431640625,-0.555260181427002,0.05741964280605316,-0.3970507085323334
1729696940707012400,4.189012451171875,-0.9547542929649353,-0.08307522535324097,-0.550373375415802
1729696940716781600,4.198781494140625,-1.2785032987594604,-0.130721315741539,-0.633448600769043
1729696940726550800,4.20855078125,-1.5003172159194946,0.033596597611904144,-0.6707102656364441
1729696940736320000,4.218320068359375,-1.6481422185897827,0.337798535823822,-0.731184184551239
1729696940746089200,4.228089111328125,-1.7953563928604126,0.6664343476295471,-0.8270871639251709
1729696940755858400,4.2378583984375,-2.0018227100372314,0.9089407324790955,-0.9474241137504578
1729696940765628000,4.2476279296875,-2.232112169265747,1.133732557296753,-1.0195040702819824
1729696940775397000,4.257397216796875,-2.4043712615966797,1.4202961921691895,-1.0195040702819824
1729696940785166300,4.267166259765625,-2.454460620880127,1.6310385465621948,-1.0030112266540527
1729696940794935600,4.276935546875,-2.41109037399292,1.715335488319397,-0.9651386737823486
1729696940804704800,4.286704833984375,-2.318241596221924,1.742823600769043,-0.883895993232727
1729696940814474000,4.296473876953125,-2.158810615539551,1.6872364282608032,-0.7525638341903687
1729696940824243200,4.3062431640625,-1.926688551902771,1.5168100595474243,-0.5760289430618286
1729696940834012400,4.316012451171875,-1.7690900564193726,1.2467392683029175,-0.35978904366493225
1729696940843782000,4.325781982421875,-1.7367150783538818,0.9211576581001282,-0.12461283802986145
1729696940853551000,4.335551025390625,-1.7886371612548828,0.6035171151161194,0.10078980028629303
1729696940863320300,4.3453203125,-1.8204011917114258,0.18019993603229523,0.2754921019077301
1729696940873089500,4.355089599609375,-1.7751984596252441,-0.21807247400283813,0.5192201733589172
1729696940882858800,4.364858642578125,-1.6768521070480347,-0.5894675850868225,0.8173136115074158
1729696940892628000,4.3746279296875,-1.6566941738128662,-0.5522059202194214,1.0518789291381836
1729696940902397200,4.384397216796875,-1.784972071647644,-0.13927318155765533,1.2058124542236328
1729696940912166400,4.39416650390625,-1.963950276374817,0.47768256068229675,1.3114891052246094
1729696940921936000,4.403935791015625,-2.103834390640259,1.100746750831604,1.3372210264205933
1729696940931705000,4.413705078125,-2.1404850482940674,1.4990955591201782,1.23940908908844
1729696940941474300,4.423474365234375,-2.058631658554077,1.5351355075836182,1.0121738910675049
1729696940951243500,4.433243408203125,-1.8546086549758911,1.2522368431091309,0.6908682584762573
1729696940961012700,4.4430126953125,-1.298661231994629,0.8539644479751587,0.32374903559684753
1729696940970782000,4.452781982421875,-0.4862344264984131,0.6719319820404053,-0.129499614238739
1729696940980551200,4.46255126953125,0.27121618390083313,0.7421793937683105,-0.6096255779266357
1729696940990320400,4.4723203125,0.7360709309577942,1.0763128995895386,-1.031110167503357
1729696941000089600,4.482089599609375,0.8154810667037964,1.4807701110839844,-1.3567681312561035
1729696941009859000,4.491859130859375,0.6731536984443665,1.853997826576233,-1.5614019632339478
1729696941019628300,4.501628173828125,0.5198310017585754,2.086730480194092,-1.5772839784622192
1729696941029397500,4.5113974609375,0.4300364851951599,1.9541767835617065,-1.3689850568771362
1729696941039166700,4.521166748046875,0.38666632771492004,1.728774070739746,-1.0695935487747192
1729696941048936000,4.53093603515625,0.29687178134918213,1.3359229564666748,-0.7250757217407227
1729696941058705200,4.540705078125,0.14110571146011353,0.8747332692146301,-0.3811686933040619
1729696941068474400,4.550474365234375,0.02748812735080719,0.5033381581306458,-0.0647498071193695
1729696941078243800,4.560243896484375,0.11300674080848694,0.4074351191520691,0.1844758689403534
1729696941088013000,4.570012939453125,0.22723518311977386,0.4318690001964569,0.3115321099758148
1729696941097782300,4.5797822265625,0.3164188861846924,0.5308262705802917,0.3823903799057007
1729696941107551500,4.589551513671875,0.390942245721817,0.6456655263900757,0.4337015450000763
1729696941117320700,4.59932080078125,0.42392799258232117,0.70797199010849,0.444085955619812
1729696941127090000,4.60908984375,0.4190412163734436,0.70308518409729,0.395218163728714
1729696941136859100,4.618859130859375,0.2504473626613617,0.5864133834838867,0.45324867963790894
1729696941146628400,4.62862841796875,-0.2724378705024719,0.2498365342617035,0.8246437907218933
1729696941156397600,4.6383974609375,-0.33352261781692505,0.42698222398757935,0.5564818382263184
1729696941166167000,4.6481669921875,-0.0781884491443634,0.7568397521972656,-0.17348061501979828
1729696941175936300,4.657936279296875,0.0781884491443634,0.5283828973770142,-0.6206207871437073
1729696941185705500,4.66770556640625,0.22784602642059326,0.23334364593029022,-0.8612946271896362
1729696941195474700,4.677474609375,0.5045598149299622,0.11300674080848694,-0.911384105682373
1729696941205244000,4.687243896484375,0.8044858574867249,0.6462764143943787,-0.7653915882110596
1729696941215013000,4.69701318359375,0.813648521900177,1.5699537992477417,-0.6053496599197388
1729696941224782300,4.7067822265625,0.40071579813957214,2.324960947036743,-0.5418215394020081
1729696941234551600,4.716551513671875,-0.42698222398757935,3.125781774520874,-0.6297835111618042
1729696941244321000,4.726321044921875,-1.3506596088409424,3.9259917736053467,-0.7488987445831299
1729696941254090200,4.73609033203125,-2.208899974822998,4.888763427734375,-0.8655705451965332
1729696941263859500,4.745859375,-2.8380727767944336,5.607730388641357,-0.8796200752258301
1729696941273628700,4.755628662109375,-3.053701877593994,5.370110988616943,-0.45141613483428955
1729696941283398000,4.76539794921875,-2.526540517807007,2.3023595809936523,0.8771766424179077
1729696941293167000,4.7751669921875,-1.7721441984176636,0.6474980711936951,1.5168100595474243
1729696941302936300,4.784936279296875,-1.63592529296875,1.1850436925888062,1.327981948852539
1729696941312705500,4.79470556640625,-1.7495429515838623,2.086730480194092,1.0946383476257324
1729696941322474800,4.804474853515625,-1.7868045568466187,2.651764392852783,1.0164498090744019
1729696941332244200,4.814244140625,-1.7275524139404297,2.7421696186065674,1.0592091083526611
1729696941342013400,4.824013427734375,-1.8509435653686523,2.5112693309783936,1.243685007095337
1729696941351782700,4.83378271484375,-1.8417809009552002,2.194850444793701,1.3732609748840332
1729696941361552000,4.8435517578125,-1.5363571643829346,1.9926601648330688,1.285833477973938
1729696941371321000,4.853321044921875,-1.0750911235809326,1.7000643014907837,0.9529217481613159
1729696941381090300,4.86309033203125,-0.6035171151161194,1.2278029918670654,0.4825693368911743
1729696941390859500,4.872859619140625,-0.26938363909721375,0.8948912620544434,0.14904673397541046
1729696941400629000,4.88262890625,-0.2217375487089157,0.8008207678794861,0.031153209507465363
1729696941410398200,4.892398193359375,-0.41171106696128845,0.7733326554298401,-0.036039989441633224
1729696941420167400,4.90216748046875,-0.6859814524650574,0.7324058413505554,-0.2357870489358902
1729696941429936600,4.9119365234375,-0.8344173431396484,0.6707102656364441,-0.629172682762146
1729696941439705900,4.921705810546875,-0.8576295375823975,0.4886777997016907,-1.1532796621322632
1729696941449475000,4.93147509765625,-0.6933116316795349,0.20402298867702484,-1.5235294103622437
1729696941459244300,4.941244384765625,-0.5338805317878723,-0.2644968628883362,-1.663413405418396
1729696941469013500,4.951013427734375,-0.41293275356292725,-0.7806627750396729,-1.7293848991394043
1729696941478782700,4.96078271484375,-0.42637139558792114,-1.0188932418823242,-1.631649374961853
1729696941488552200,4.97055224609375,-0.444085955619812,-1.0072871446609497,-1.3212625980377197
1729696941498321400,4.9803212890625,-0.342074453830719,-0.8313631415367126,-0.7452336549758911
1729696941508090600,4.990090576171875,-0.6981984376907349,-0.09284878522157669,0.26632940769195557
1729696941517859800,4.99985986328125,-1.090362310409546,0.6768187880516052,1.3421077728271484
1729696941527629000,5.009629150390625,-1.1642749309539795,1.0555440187454224,2.333512783050537
1729696941537398300,5.019398193359375,-1.203369140625,1.4245721101760864,3.183812379837036
1729696941547167500,5.02916748046875,-1.455114483833313,1.6426446437835693,3.7164711952209473
1729696941556937000,5.03893701171875,-1.877210021018982,1.6566941738128662,4.022582054138184
1729696941566706200,5.0487060546875,-2.5741868019104004,1.6133239269256592,4.236989498138428
1729696941576475400,5.058475341796875,-3.3670663833618164,1.585224986076355,4.386035919189453
1729696941586244600,5.06824462890625,-3.918661594390869,1.3714284896850586,4.379316806793213
1729696941596013800,5.078013916015625,-4.168574333190918,0.7342383861541748,3.929656744003296
1729696941605783000,5.087782958984375,-4.067173957824707,-0.624285876750946,2.0855088233947754
1729696941615552300,5.09755224609375,-3.726855516433716,-1.1850436925888062,0.30664533376693726
1729696941625321500,5.107321533203125,-3.270552635192871,-0.8820634484291077,-0.5106683373451233
1729696941635090700,5.117090576171875,-2.836240291595459,-0.3830012381076813,-0.9425373077392578
1729696941644860200,5.126860107421875,-2.4379677772521973,0.031153209507465363,-1.2705622911453247
1729696941654629400,5.13662939453125,-2.246161699295044,0.30908870697021484,-1.4435083866119385
1729696941664398600,5.146398681640625,-2.2046241760253906,0.46241137385368347,-1.4911545515060425
1729696941674167800,5.156167724609375,-2.1496479511260986,0.4599680006504059,-1.5235294103622437
1729696941683937000,5.16593701171875,-2.0054879188537598,0.37200596928596497,-1.660359263420105
1729696941693706200,5.175706298828125,-1.9156934022903442,0.22051586210727692,-1.8405591249465942
1729696941703475500,5.185475341796875,-1.8423917293548584,-0.020157959312200546,-2.1172728538513184
1729696941713245000,5.195244873046875,-1.3469945192337036,-0.3439069986343384,-2.4740078449249268
1729696941723014100,5.20501416015625,-0.390942245721817,-0.6365028619766235,-2.5638022422790527
1729696941732783400,5.214783447265625,0.5253286361694336,-1.3273711204528809,-2.2614328861236572
1729696941742552600,5.224552490234375,1.0726478099822998,-1.753208041191101,-1.667689323425293
1729696941752321800,5.23432177734375,1.1264023780822754,-1.6768521070480347,-0.9034430980682373
1729696941762091000,5.244091064453125,0.8454126119613647,-1.2235270738601685,-0.16187451779842377
1729696941771860200,5.253860107421875,0.4984513521194458,-0.6896465420722961,0.34818294644355774
1729696941781629400,5.26362939453125,0.18997350335121155,-0.24067382514476776,0.5760289430618286
1729696941791398700,5.273398681640625,-0.02870982140302658,0.1325538605451584,0.5949652194976807
1729696941801168100,5.283168212890625,-0.1056765764951706,0.4178195297718048,0.5002838969230652
1729696941810937300,5.292937255859375,-0.051922015845775604,0.5851916670799255,0.37078428268432617
1729696941820706600,5.30270654296875,0.08307522535324097,0.6615476012229919,0.2351761907339096
1729696941830475800,5.312475830078125,0.2596100866794586,0.7140804529190063,0.10750912129878998
1729696941840245000,5.322244873046875,0.4746283292770386,0.7928797602653503,-0.012216945178806782
1729696941850014200,5.33201416015625,0.6786513328552246,0.9046648144721985,-0.10689827054738998
1729696941859783400,5.341783447265625,0.7824953198432922,1.040272831916809,-0.1557660549879074
1729696941869553000,5.351552978515625,0.781884491443634,1.222305417060852,-0.1441599577665329
1729696941879322000,5.361322021484375,0.6890357136726379,1.4202961921691895,-0.10140064358711243
1729696941889091300,5.37109130859375,0.5100574493408203,1.589500904083252,-0.045202698558568954
1729696941898860500,5.380860595703125,0.29687178134918213,1.706783652305603,0.05497625470161438
1729696941908629800,5.390629638671875,0.11606097966432571,1.8448350429534912,0.23334364593029022
1729696941918399000,5.40039892578125,-0.13927318155765533,1.2876659631729126,0.312142938375473
1729696941928168200,5.410168212890625,-0.026877280324697495,2.1258249282836914,0.7623373866081238
1729696941937937400,5.4199375,0.12339114397764206,2.491722345352173,0.9895725846290588
1729696941947706600,5.42970654296875,0.28098973631858826,2.1374309062957764,0.9743013978004456
1729696941957476000,5.43947607421875,0.4593571424484253,1.5901117324829102,0.8063184022903442
1729696941967245300,5.449245361328125,0.6615476012229919,1.0610417127609253,0.5803049206733704
1729696941977014500,5.4590146484375,0.8527427911758423,0.6646018028259277,0.4202629029750824
1729696941986783700,5.46878369140625,0.9504783153533936,0.47951510548591614,0.4282039403915405
1729696941996553000,5.478552978515625,0.9706363081932068,0.42331716418266296,0.5919110178947449
1729696942006322200,5.488322265625,1.0024003982543945,0.446529358625412,0.8289197087287903
1729696942016091400,5.49809130859375,1.0549331903457642,0.4220954477787018,1.009730577468872
1729696942025860900,5.50786083984375,1.0805888175964355,0.33596599102020264,1.1117420196533203
1729696942035630000,5.517630126953125,1.1209046840667725,0.3555130958557129,1.243685007095337
1729696942045399300,5.5273994140625,1.2235270738601685,0.6407787799835205,1.5363571643829346
1729696942055168500,5.53716845703125,1.3390535116195679,0.9486457705497742,1.839948296546936
1729696942064937700,5.546937744140625,1.438010811805725,1.0256125926971436,1.9444031715393066
1729696942074707000,5.55670703125,1.4935978651046753,0.8912261724472046,1.8491109609603882
1729696942084476200,5.56647607421875,1.4954304695129395,0.6420004963874817,1.6524181365966797
1729696942094245400,5.576245361328125,1.4966521263122559,0.416597843170166,1.4538928270339966
1729696942104014600,5.5860146484375,1.456336259841919,0.34879377484321594,1.2650647163391113
1729696942113784000,5.5957841796875,1.3879213333129883,0.3408527672290802,1.0836430788040161
1729696942123553300,5.60555322265625,1.3169866800308228,0.10017894953489304,0.9571976661682129
1729696942133322500,5.615322509765625,1.2198619842529297,-0.3524588644504547,0.8814526200294495
1729696942143091700,5.625091796875,1.0524898767471313,-0.860683798789978,0.7776085734367371
1729696942152861000,5.63486083984375,0.8032641410827637,-1.1868761777877808,0.6358919739723206
1729696942162630100,5.644630126953125,0.5638120174407959,-1.0940274000167847,0.5277720093727112
1729696942172399600,5.654399658203125,0.4489727318286896,-0.5864133834838867,0.522885262966156
1729696942182168800,5.6641689453125,0.4947862923145294,0.0781884491443634,0.5363239049911499
1729696942191938000,5.67393798828125,0.5931326746940613,0.5344913601875305,0.48806697130203247
1729696942201707300,5.683707275390625,0.6230642199516296,0.6542174220085144,0.3811686933040619
1729696942211476500,5.6934765625,0.5796940326690674,0.48989951610565186,0.27060532569885254
1729696942221245700,5.70324560546875,0.4874561131000519,0.1185043677687645,0.1954711228609085
1729696942231015000,5.713014892578125,0.39827242493629456,-0.3164188861846924,0.1301104724407196
1729696942240784100,5.7227841796875,0.3530697226524353,-0.6731536984443665,0.04947862774133682
1729696942250553300,5.73255322265625,0.3414636254310608,-0.8820634484291077,-0.05375456064939499
1729696942260322800,5.74232275390625,0.33230090141296387,-0.9590302109718323,-0.1582094430923462
1729696942270092000,5.752092041015625,0.3127537965774536,-0.9761339426040649,-0.24128466844558716
1729696942279861200,5.761861328125,0.27854636311531067,-1.0024003982543945,-0.29687178134918213
1729696942289630500,5.77163037109375,0.2363978922367096,-1.0598199367523193,-0.32313820719718933
1729696942299399700,5.781399658203125,0.1973036676645279,-1.1331216096878052,-0.3274141252040863
1729696942309169000,5.7911689453125,0.16309621930122375,-1.2241379022598267,-0.3268032968044281
1729696942318938000,5.800938232421875,0.14049486815929413,-1.339664340019226,-0.31886225938796997
1729696942328707600,5.81070751953125,0.1056765764951706,-1.4612230062484741,-0.3023693859577179
1729696942338476800,5.820476806640625,0.054365407675504684,-1.5394114255905151,-0.3005368411540985
1729696942348246000,5.83024609375,-0.023823043331503868,-1.5314704179763794,-0.32374903559684753
1729696942358015200,5.84001513671875,-0.12644538283348083,-1.460612177848816,-0.37078428268432617
1729696942367784400,5.849784423828125,-0.2486148327589035,-1.3885321617126465,-0.42881476879119873
1729696942377553700,5.8595537109375,-0.37261682748794556,-1.3586006164550781,-0.4947862923145294
1729696942387323000,5.869322998046875,-0.4611896872520447,-1.4093009233474731,-0.5809157490730286
1729696942397092000,5.879092041015625,-0.5063923597335815,-1.5229185819625854,-0.6988092660903931
1729696942406861600,5.888861572265625,-0.4984513521194458,-1.6511964797973633,-0.8246437907218933
1729696942416630800,5.898630859375,-0.45447036623954773,-1.7226656675338745,-0.9327637553215027
1729696942426400000,5.90839990234375,-0.40071579813957214,-1.6683002710342407,-1.0335536003112793
1729696942436169200,5.918169189453125,-0.33474430441856384,-1.3940298557281494,-1.13800847530365
1729696942445938400,5.9279384765625,-0.2596100866794586,-0.833195686340332,-1.2235270738601685
1729696942455707600,5.937707763671875,-0.16370706260204315,0.02504473738372326,-1.273005723953247
1729696942465476900,5.947476806640625,-0.0036650835536420345,1.1795459985733032,-1.277281641960144
1729696942475246300,5.957246337890625,0.1973036676645279,2.3555033206939697,-1.2919420003890991
1729696942485015600,5.967015625,0.34696123003959656,3.0231595039367676,-1.3604332208633423
1729696942494784800,5.97678466796875,0.4489727318286896,2.981621742248535,-1.3653199672698975
1729696942504554000,5.986553955078125,0.5131117105484009,2.400095224380493,-1.1300674676895142
1729696942514323200,5.9963232421875,0.5283828973770142,1.5284161567687988,-0.7250757217407227
1729696942524092400,6.006092529296875,0.46485477685928345,0.6267293095588684,-0.3255815804004669
1729696942533861600,6.015861572265625,0.3536805510520935,-0.10995250940322876,-0.05925218388438225
1729696942543630800,6.025630859375,0.19241689145565033,-0.6536065936088562,0.08918370306491852
1729696942553400000,6.035400146484375,0.055587101727724075,-1.0781453847885132,0.22601348161697388
1729696942563169500,6.04516943359375,0.02993151545524597,-1.410522699356079,0.33230090141296387
1729696942572938800,6.054938720703125,0.1172826737165451,-1.6621917486190796,0.4031592011451721
1729696942582708000,6.0647080078125,0.4282039403915405,-1.4038033485412598,0.6963658928871155
1729696942592477200,6.074477294921875,0.9767447710037231,-0.5955760478973389,0.9663603901863098
1729696942602246400,6.084246337890625,1.1911520957946777,0.1979145109653473,0.7745543122291565
1729696942612015600,6.094015625,0.883895993232727,1.0213366746902466,0.5015056133270264
1729696942621784800,6.103784912109375,0.4978405237197876,1.7629815340042114,0.4080459773540497
1729696942631554300,6.11355419921875,0.23884128034114838,2.3518383502960205,0.3426853120326996
1729696942641323500,6.123323486328125,0.016492875292897224,2.7629384994506836,0.19241689145565033
1729696942651092700,6.1330927734375,-0.21501824259757996,2.8814427852630615,-0.06780404597520828
1729696942660862000,6.142862060546875,-0.3561239540576935,2.423307418823242,-0.5894675850868225
1729696942670631200,6.152631103515625,-0.4679090082645416,1.9841082096099854,-0.8362498879432678
1729696942680400400,6.162400390625,-0.47951510548591614,1.7709225416183472,-0.6267293095588684
1729696942690169600,6.172169677734375,-0.3426853120326996,1.404414176940918,-0.24617144465446472
1729696942699938800,6.181938720703125,-0.19241689145565033,0.9608627557754517,0.15454435348510742
1729696942709708300,6.191708251953125,-0.1698155403137207,0.6004628539085388,0.4715740978717804
1729696942719477500,6.2014775390625,-0.3280249834060669,0.42453885078430176,0.629172682762146
1729696942729246700,6.211246826171875,-0.5497625470161438,0.3915531039237976,0.6065713167190552
1729696942739016000,6.221015869140625,-0.6920899152755737,0.3549022674560547,0.4428642690181732
1729696942748785200,6.23078515625,-0.7207997441291809,0.26938363909721375,0.22845686972141266
1729696942758554400,6.240554443359375,-0.6700994372367859,0.13377554714679718,0.006108472589403391
1729696942768323600,6.250323486328125,-0.5925218462944031,-0.034818295389413834,-0.23334364593029022
1729696942778093000,6.260093017578125,-0.5106683373451233,-0.20341213047504425,-0.48928865790367126
1729696942787862300,6.2698623046875,-0.4343124032020569,-0.3762819170951843,-0.7415685653686523
1729696942797631500,6.279631591796875,-0.37444937229156494,-0.573585569858551,-0.9492566585540771
1729696942807400700,6.289400634765625,-0.3249707520008087,-0.81425940990448,-1.1019684076309204
1729696942817170000,6.299169921875,-0.29320669174194336,-1.0854755640029907,-1.202147364616394
1729696942826939100,6.308939208984375,-0.3164188861846924,-1.3543246984481812,-1.2504043579101562
1729696942836708400,6.318708251953125,-0.3903313875198364,-1.576673150062561,-1.2571237087249756
1729696942846477600,6.3284775390625,-0.49234288930892944,-1.719611406326294,-1.2387982606887817
1729696942856247000,6.3382470703125,-0.5986303091049194,-1.803908348083496,-1.203369140625
1729696942866016300,6.348016357421875,-0.6749862432479858,-1.8326181173324585,-1.1667182445526123
1729696942875785500,6.357785400390625,-0.726908266544342,-1.7770310640335083,-1.136786699295044
1729696942885554700,6.3675546875,-0.7495095729827881,-1.6585266590118408,-1.0970816612243652
1729696942895324000,6.377323974609375,-0.7427902817726135,-1.5320812463760376,-1.0445488691329956
1729696942905093000,6.387093017578125,-0.7262973785400391,-1.4050250053405762,-0.9846857786178589
1729696942914862300,6.3968623046875,-0.7507312893867493,-1.2387982606887817,-0.916270911693573
1729696942924631800,6.4066318359375,-0.8020424246788025,-1.058598279953003,-0.8490777015686035
1729696942934401000,6.416401123046875,-0.8228112459182739,-0.9229902029037476,-0.8276980519294739
1729696942944170200,6.426170166015625,-0.832584798336029,-0.8704573512077332,-0.8716790676116943
1729696942953939500,6.435939453125,-0.9242119193077087,-1.1038010120391846,-1.0744802951812744
1729696942963708700,6.445708740234375,-0.8240329623222351,-1.142895221710205,-1.2302464246749878
1729696942973478000,6.455477783203125,-0.7207997441291809,-1.1141854524612427,-1.3518813848495483
1729696942983247000,6.4652470703125,-0.6212316751480103,-1.0427162647247314,-1.474050760269165
1729696942993016300,6.475016357421875,-0.4874561131000519,-0.786771297454834,-1.612713098526001
1729696943002785800,6.484785888671875,-0.33413344621658325,-0.054365407675504684,-1.8692690134048462
1729696943012555000,6.494554931640625,-0.1979145109653473,0.9193251132965088,-2.078789472579956
1729696943022324200,6.50432421875,-0.10323318839073181,1.4447301626205444,-2.0103747844696045
1729696943032093400,6.514093505859375,-0.03176405653357506,1.52475106716156,-1.7165571451187134
1729696943041862700,6.523862548828125,0.006108472589403391,1.3592115640640259,-1.2650647163391113
1729696943051631900,6.5336318359375,0.006108472589403391,1.1942063570022583,-0.6707102656364441
1729696943061401000,6.543401123046875,-0.0036650835536420345,0.9535325765609741,-0.04337015375494957
1729696943071170300,6.55317041015625,-0.004886778071522713,0.4349232614040375,0.40132665634155273
1729696943080939800,6.562939697265625,-0.01710372418165207,-0.05497625470161438,0.6725428104400635
1729696943090709000,6.572708984375,-0.029320668429136276,-0.3127537965774536,0.8362498879432678
1729696943100478200,6.582478271484375,-0.04703523963689804,-0.3958290219306946,0.8875610828399658
1729696943110247400,6.592247314453125,-0.053143709897994995,-0.3781144618988037,0.8448017835617065
1729696943120016600,6.6020166015625,-0.03787253051996231,-0.32252734899520874,0.7262973785400391
1729696943129785900,6.611785888671875,-0.017714571207761765,-0.25655585527420044,0.5686988234519958
1729696943139555000,6.62155517578125,0.01954711228609085,-0.183865025639534,0.40254834294319153
1729696943149324500,6.631324462890625,0.08735115826129913,-0.10384403169155121,0.25594499707221985
1729696943159093800,6.64109375,0.17348061501979828,-0.015271181240677834,0.13988402485847473
1729696943168863000,6.650863037109375,0.2632751762866974,0.04886778071522713,0.05497625470161438
1729696943178632200,6.660632080078125,0.3127537965774536,0.08979454636573792,-0.0018325417768210173
1729696943188401400,6.6704013671875,0.29687178134918213,0.2504473626613617,-0.05741964280605316
1729696943198170600,6.680170654296875,0.2498365342617035,1.0274450778961182,-0.16370706260204315
1729696943207939800,6.68993994140625,0.26632940769195557,2.787372350692749,0.0647498071193695
1729696943217709000,6.699708984375,0.4367557764053345,4.242486953735352,1.0952491760253906
1729696943227478500,6.709478515625,0.6646018028259277,4.602275848388672,2.2192845344543457
1729696943237247700,6.719247802734375,0.837471604347229,4.483160972595215,2.8924381732940674
1729696943247017000,6.729016845703125,0.9975135922431946,4.189342975616455,3.0524802207946777
1729696943256786200,6.7387861328125,1.183211088180542,3.5234434604644775,2.888772964477539
1729696943266555400,6.748555419921875,1.395862340927124,2.455071449279785,2.7592735290527344
1729696943276324600,6.75832470703125,1.5400222539901733,0.8753440976142883,2.7446131706237793
1729696943286093800,6.76809375,1.5424656867980957,-0.8887827396392822,2.888162136077881
1729696943295863300,6.77786328125,1.4624446630477905,-2.163086414337158,3.0805790424346924
1729696943305632500,6.787632568359375,1.3879213333129883,-2.891827344894409,3.1905314922332764
1729696943315401700,6.797401611328125,1.2467392683029175,-3.1703736782073975,3.177093029022217
1729696943325171000,6.8071708984375,0.9883508682250977,-2.981621742248535,2.9877302646636963
1729696943334940200,6.816940185546875,0.6303943991661072,-2.397041082382202,2.648710012435913
1729696943344709400,6.82670947265625,0.32252734899520874,-1.464888095855713,2.2889211177825928
1729696943354478600,6.836478515625,0.16309621930122375,-0.4282039403915405,1.936462163925171
1729696943364247800,6.846247802734375,0.13866232335567474,0.42514967918395996,1.6004961729049683
1729696943374017300,6.856017333984375,0.22540263831615448,1.045770525932312,1.3328686952590942
1729696943383786500,6.865786376953125,0.3946073353290558,1.511312484741211,1.0952491760253906
1729696943393555700,6.8755556640625,0.6224533319473267,1.8875943422317505,0.7751652002334595
1729696943403325000,6.885324951171875,0.836860716342926,2.324960947036743,0.45385950803756714
1729696943413094100,6.89509423828125,1.0207257270812988,2.792870044708252,0.258999228477478
1729696943422863400,6.90486328125,1.1752700805664062,3.2167980670928955,0.22906772792339325
1729696943432632600,6.914632568359375,1.249793529510498,3.481905698776245,0.31947311758995056
1729696943442402000,6.924402099609375,1.23940908908844,3.426929473876953,0.4294256269931793
1729696943452171300,6.934171142578125,1.165496587753296,2.868004322052002,0.4978405237197876
1729696943461940500,6.9439404296875,1.0830321311950684,1.753208041191101,0.5192201733589172
1729696943471709700,6.953709716796875,0.9779664874076843,0.4563029110431671,0.5754181146621704
1729696943481479000,6.96347900390625,0.7513421177864075,-0.4691306948661804,0.6914790868759155
1729696943491248000,6.973248046875,0.43797749280929565,-0.8906152844429016,0.7947123050689697
1729696943501017300,6.983017333984375,0.15026842057704926,-1.0408837795257568,0.8619054555892944
1729696943510786600,6.99278662109375,-0.05497625470161438,-1.1123528480529785,0.8826742768287659
1729696943520556000,7.00255615234375,-0.15454435348510742,-1.178935170173645,0.8276980519294739
1729696943530325200,7.0123251953125,-0.16737215220928192,-1.248571753501892,0.6939224600791931
1729696943540094500,7.022094482421875,-0.1441599577665329,-1.2791141271591187,0.5088357925415039
1729696943549863700,7.03186376953125,-0.11483928561210632,-1.3781477212905884,0.3286358118057251
1729696943559633000,7.0416328125,-0.11545012891292572,-1.5668995380401611,0.16676130890846252
1729696943569402000,7.051402099609375,-0.18936264514923096,-1.7587056159973145,0.0006108472589403391
1729696943579171300,7.06117138671875,-0.29687178134918213,-1.932186245918274,-0.1844758689403534
1729696943588940800,7.07094091796875,-0.39643988013267517,-2.095893383026123,-0.3701734244823456
1729696943598710000,7.0807099609375,-0.4721849262714386,-2.246772527694702,-0.5418215394020081
1729696943608479200,7.090479248046875,-0.5491516590118408,-2.3555033206939697,-0.7098045349121094
1729696943618248400,7.10024853515625,-0.624896764755249,-2.3726069927215576,-0.8661814332008362
1729696943628017700,7.110017578125,-0.6707102656364441,-2.2559351921081543,-1.0017894506454468
1729696943637787000,7.119786865234375,-0.6933116316795349,-1.9725021123886108,-1.129456639289856
1729696943647556000,7.12955615234375,-0.6823163628578186,-1.5351355075836182,-1.2143644094467163
1729696943657325300,7.1393251953125,-0.6584933400154114,-0.9071081876754761,-1.2803359031677246
1729696943667094800,7.1490947265625,-0.5601469278335571,0.0030542362947016954,-1.1202938556671143
1729696943676864000,7.158864013671875,-0.16065283119678497,1.5161992311477661,-0.28098973631858826
1729696943686633200,7.16863330078125,0.4422534108161926,2.972459077835083,0.4428642690181732
1729696943696402400,7.17840234375,0.7238540053367615,3.3823375701904297,0.5760289430618286
1729696943706171600,7.188171630859375,0.7464553713798523,2.984065294265747,0.5766398310661316
1729696943715940900,7.19794091796875,0.7482879161834717,1.8387266397476196,0.5906893014907837
1729696943725710000,7.2077099609375,0.6328377723693848,0.1588202863931656,0.5803049206733704
1729696943735479600,7.2174794921875,0.420873761177063,-1.1960389614105225,0.5070032477378845
1729696943745248800,7.227248779296875,0.3500154912471771,-2.086730480194092,0.38422292470932007
1729696943755018000,7.23701806640625,0.3823903799057007,-2.566856622695923,0.1850867122411728
1729696943764787200,7.246787109375,0.39949411153793335,-2.558304786682129,-0.06352811306715012
1729696943774556400,7.256556396484375,0.32374903559684753,-2.153923749923706,-0.33718767762184143
1729696943784325600,7.26632568359375,0.15454435348510742,-1.5412440299987793,-0.6004628539085388
1729696943794094800,7.2760947265625,-0.03298575058579445,-0.9614735841751099,-0.8466343283653259
1729696943803864000,7.285864013671875,-0.14110571146011353,-0.648108959197998,-1.1838220357894897
1729696943813633500,7.295633544921875,-0.030542362481355667,-0.6731536984443665,-1.557736873626709
1729696943823402800,7.30540283203125,0.5149442553520203,-0.41293275356292725,-0.9865183234214783
1729696943833172000,7.315171875,0.9895725846290588,0.25350162386894226,-0.38788801431655884
1729696943842941200,7.324941162109375,1.0164498090744019,2.3628334999084473,0.16065283119678497
1729696943852710400,7.33471044921875,0.6310052275657654,3.924769878387451,1.0592091083526611
1729696943862479600,7.344479736328125,0.23823043704032898,3.8563551902770996,1.6163781881332397
1729696943872248800,7.354248779296875,0.129499614238739,2.70857310295105,1.087918996810913
1729696943882018300,7.364018310546875,0.02076880633831024,0.9675820469856262,-0.3115321099758148
1729696943891787500,7.37378759765625,-0.06352811306715012,-0.4556920528411865,-1.5913335084915161
1729696943901556700,7.383556640625,-0.1325538605451584,-0.46424391865730286,-1.8967571258544922
1729696943911326000,7.393325927734375,-0.365286648273468,0.3249707520008087,-1.6377578973770142
1729696943921095200,7.40309521484375,-0.5717530250549316,1.0304993391036987,-1.2949961423873901
1729696943930864400,7.412864501953125,-0.6340594291687012,1.5656778812408447,-0.8661814332008362
1729696943940633600,7.422633544921875,-0.5858024954795837,1.9951034784317017,-0.420873761177063
1729696943950402800,7.43240283203125,-0.4868452548980713,2.350005865097046,-0.0922379344701767
1729696943960172300,7.44217236328125,-0.45141613483428955,2.608394145965576,0.0922379344701767
1729696943969941500,7.45194140625,-0.5424323678016663,2.6908586025238037,0.18081079423427582
1729696943979710700,7.461710693359375,-0.707361102104187,2.521653890609741,0.20768806338310242
1729696943989480000,7.47147998046875,-0.8997780084609985,1.410522699356079,0.10689827054738998
1729696943999249200,7.481249267578125,-0.9761339426040649,1.0042328834533691,0.02870982140302658
1729696944009018400,7.491018310546875,-0.8454126119613647,0.8264763355255127,-0.020157959312200546
1729696944018787600,7.50078759765625,-0.6914790868759155,0.5906893014907837,-0.1178935244679451
1729696944028557000,7.51055712890625,-0.6022953987121582,0.3793361485004425,-0.2895416021347046
1729696944038326300,7.520326171875,-0.5894675850868225,0.19241689145565033,-0.5265503525733948
1729696944048095500,7.530095458984375,-0.6413896083831787,0.013438640162348747,-0.7776085734367371
1729696944057864700,7.53986474609375,-0.7293516397476196,-0.12461283802986145,-0.9797990322113037
1729696944067634000,7.549634033203125,-0.8270871639251709,-0.2339545041322708,-1.1209046840667725
1729696944077403100,7.559403076171875,-0.9126058220863342,-0.3151971995830536,-1.2326897382736206
1729696944087172400,7.56917236328125,-1.0195040702819824,-0.27854636311531067,-1.2840009927749634
1729696944096941600,7.578941650390625,-1.0659284591674805,-0.21990501880645752,-1.3139324188232422
1729696944106711000,7.5887109375,-1.0793671607971191,-0.208298921585083,-1.3506596088409424
1729696944116480300,7.598480224609375,-1.1080769300460815,-0.20402298867702484,-1.3934189081192017
1729696944126249500,7.60824951171875,-1.1447277069091797,-0.2761029601097107,-1.4630554914474487
1729696944136018700,7.618018798828125,-1.1441168785095215,-0.42881476879119873,-1.566288709640503
1729696944145788000,7.627787841796875,-1.0836430788040161,-0.5748072862625122,-1.7025076150894165
1729696944155557000,7.63755712890625,-0.9773555994033813,-0.6584933400154114,-1.8924812078475952
1729696944165326300,7.647326416015625,-0.8759549856185913,-0.6560499668121338,-2.215008497238159
1729696944175095800,7.657095703125,-0.7757760286331177,-0.6206207871437073,-2.5460877418518066
1729696944184865000,7.666864990234375,-0.6780404448509216,-0.5998520255088806,-2.58762526512146
1729696944194634200,7.67663427734375,-0.6132906675338745,-0.6212316751480103,-2.3952083587646484
1729696944204403500,7.686403564453125,-0.5815265774726868,-0.6224533319473267,-2.1203272342681885
1729696944214172700,7.696172607421875,-0.5577035546302795,-0.5173876285552979,-1.8258987665176392
1729696944223942000,7.70594189453125,-0.5442649126052856,-0.2980934679508209,-1.5607911348342896
1729696944233711000,7.715711181640625,-0.5259394645690918,-0.010995250195264816,-1.3469945192337036
1729696944243480300,7.725480224609375,-0.4886777997016907,0.2748812735080719,-1.1422843933105469
1729696944253249500,7.73524951171875,-0.4599680006504059,0.47707170248031616,-0.8936695456504822
1729696944263019000,7.74501904296875,-0.4703523814678192,0.4819584786891937,-0.5766398310661316
1729696944272788200,7.754788330078125,-0.5216635465621948,0.21379654109477997,-0.2351761907339096
1729696944282557400,7.764557373046875,-0.5430431962013245,-0.1960819661617279,0.04886778071522713
1729696944292326700,7.77432666015625,-0.49051034450531006,-0.6279509663581848,0.16004198789596558
1729696944302096000,7.784095947265625,-0.4049917459487915,-0.9657495021820068,0.06352811306715012
1729696944311865000,7.793864990234375,-0.31886225938796997,-1.0628741979599,-0.1698155403137207
1729696944321634600,7.803634521484375,-0.2638860046863556,-0.8454126119613647,-0.4068242609500885
1729696944331403800,7.81340380859375,-0.2724378705024719,-0.48928865790367126,-0.5589252710342407
1729696944341173000,7.823173095703125,-0.3292466700077057,-0.21379654109477997,-0.5723638534545898
1729696944350942200,7.832942138671875,-0.38422292470932007,-0.16615045070648193,-0.4337015450000763
1729696944360711400,7.84271142578125,-0.420873761177063,-0.33718767762184143,-0.19302773475646973
1729696944370480600,7.852480712890625,-0.4477510452270508,-0.6554391384124756,0.08490777015686035
1729696944380249900,7.862249755859375,-0.46546560525894165,-1.0451596975326538,0.33352261781692505
1729696944390019000,7.87201904296875,-0.4715740978717804,-1.4062467813491821,0.4886777997016907
1729696944399788300,7.881788330078125,-0.4575245976448059,-1.654861569404602,0.5265503525733948
1729696944409557800,7.891557861328125,-0.35856732726097107,-1.6652460098266602,0.41476529836654663
1729696944419327000,7.901326904296875,-0.14965757727622986,-1.0347752571105957,0.03542914241552353
1729696944429096200,7.91109619140625,0.061084724962711334,0.18814095854759216,-0.4355340898036957
1729696944438865400,7.920865478515625,0.17714570462703705,1.1190721988677979,-0.5448757410049438
1729696944448634600,7.930634521484375,0.25289076566696167,1.6701327562332153,-0.29259583353996277
1729696944458403800,7.94040380859375,0.37139514088630676,2.393375873565674,0.6939224600791931
1729696944468173300,7.95017333984375,0.6206207871437073,2.700021266937256,2.127657413482666
1729696944477942500,7.959942626953125,0.8790091872215271,2.2156193256378174,3.0744705200195312
1729696944487711700,7.969711669921875,1.0830321311950684,1.6102697849273682,3.3957762718200684
1729696944497481000,7.97948095703125,1.2491827011108398,1.058598279953003,3.3175878524780273
1729696944507250200,7.989250244140625,1.3549355268478394,0.6029062271118164,3.108678102493286
1729696944517019400,7.999019287109375,1.488100290298462,0.08185353130102158,2.94069504737854
1729696944526788600,8.00878857421875,1.6365361213684082,-0.8008207678794861,2.833796739578247
1729696944536557800,8.018557861328125,1.8149036169052124,-1.6108806133270264,2.7690470218658447
1729696944546327000,8.0283271484375,2.0042662620544434,-2.1606431007385254,2.6755874156951904
1729696944556096500,8.038096435546874,1.9816648960113525,-2.295029401779175,2.6389365196228027
1729696944565865700,8.04786572265625,1.7306066751480103,-1.9059197902679443,2.6242761611938477
1729696944575635000,8.057635009765624,1.2778924703598022,-1.0335536003112793,2.5912904739379883
1729696944585404200,8.067404052734375,0.7220214605331421,0.04825693368911743,2.510047674179077
1729696944595173400,8.07717333984375,0.25289076566696167,1.0176715850830078,2.3255717754364014
1729696944604942600,8.086942626953125,0.06902574002742767,1.6957883834838867,2.1062777042388916
1729696944614711800,8.0967119140625,0.1557660549879074,1.937072992324829,1.922412633895874
1729696944624481300,8.106481201171874,0.3811686933040619,2.0415279865264893,1.7165571451187134
1729696944634250500,8.11625048828125,0.6719319820404053,1.9382946491241455,1.4312914609909058
1729696944644019700,8.126019775390626,0.841747522354126,1.5705646276474,1.0799779891967773
1729696944653789000,8.135788818359375,0.8765658140182495,1.1312891244888306,0.7592831254005432
1729696944663558100,8.14555810546875,0.8906152844429016,0.8276980519294739,0.48806697130203247
1729696944673327400,8.155327392578124,0.9034430980682373,0.555260181427002,0.2492256760597229
1729696944683096600,8.1650966796875,0.9584193229675293,0.2999260127544403,0.07085828483104706
1729696944692865800,8.17486572265625,1.0304993391036987,0.11483928561210632,-0.05803048983216286
1729696944702635300,8.18463525390625,1.1178505420684814,0.03176405653357506,-0.11667182296514511
1729696944712404500,8.194404541015626,1.165496587753296,0.04459185153245926,-0.030542362481355667
1729696944722173700,8.204173583984375,1.1447277069091797,0.1960819661617279,0.13560809195041656
1729696944731943000,8.21394287109375,1.0628741979599,0.28037887811660767,0.26999449729919434
1729696944741712100,8.223712158203124,0.9217684864997864,0.18691925704479218,0.37261682748794556
1729696944751481300,8.2334814453125,0.7562289237976074,-0.062306419014930725,0.42576053738594055
1729696944761250600,8.24325048828125,0.5937435626983643,-0.47951510548591614,0.3897205591201782
1729696944771020000,8.25302001953125,0.4575245976448059,-1.0463813543319702,0.2895416021347046
1729696944780789200,8.262789306640625,0.3518480062484741,-1.623097538948059,0.16615045070648193
1729696944790558500,8.272558349609374,0.2620534598827362,-2.0946714878082275,0.04947862774133682
1729696944800327700,8.28232763671875,0.16859383881092072,-2.4269726276397705,-0.04825693368911743
1729696944810097000,8.292096923828124,0.045202698558568954,-2.6749765872955322,-0.14171656966209412
1729696944819866000,8.3018662109375,-0.08124268800020218,-2.862506628036499,-0.2486148327589035
1729696944829635300,8.31163525390625,-0.17225892841815948,-2.952301263809204,-0.38605546951293945
1729696944839404500,8.321404541015625,-0.22845686972141266,-2.958409547805786,-0.550373375415802
1729696944849174000,8.331174072265625,-0.265718549489975,-2.8930490016937256,-0.7708892226219177
1729696944858943200,8.340943115234374,-0.32069480419158936,-2.861895799636841,-1.0133955478668213
1729696944868712400,8.35071240234375,-0.416597843170166,-2.726287603378296,-1.252847671508789
1729696944878481700,8.360481689453126,-0.5509842038154602,-2.598620653152466,-1.455114483833313
1729696944888251000,8.3702509765625,-0.70797199010849,-2.295640468597412,-1.5333030223846436
1729696944898020000,8.38002001953125,-0.8276980519294739,-1.7061727046966553,-1.5522392988204956
1729696944907789300,8.389789306640624,-0.7519529461860657,-0.5986303091049194,-1.073258638381958
1729696944917558800,8.399558837890625,-0.2730487287044525,0.8857285380363464,0.33535513281822205
1729696944927328000,8.409327880859376,0.17592400312423706,1.5833925008773804,0.7262973785400391
1729696944937097200,8.41909716796875,0.46241137385368347,1.7611490488052368,0.4037700295448303
1729696944946866400,8.428866455078126,0.70308518409729,2.083676338195801,0.27121618390083313
1729696944956635600,8.4386357421875,0.8814526200294495,1.9132499694824219,0.18997350335121155
1729696944966404900,8.44840478515625,0.8625163435935974,0.9907942414283752,0.14660334587097168
1729696944976174000,8.458174072265624,0.6933116316795349,0.036039989441633224,0.0910162404179573
1729696944985943300,8.467943359375,0.6090146899223328,-0.8038749694824219,-0.036039989441633224
1729696944995712800,8.477712646484376,0.5393781065940857,-1.1795459985733032,-0.25533416867256165
1729696945005482000,8.48748193359375,0.38544461131095886,-0.9761339426040649,-0.5381564497947693
1729696945015251200,8.497251220703125,0.12461283802986145,-0.3524588644504547,-0.8124268651008606
1729696945025020400,8.5070205078125,-0.2089097648859024,0.25655585527420044,-1.0335536003112793
1729696945034789600,8.51678955078125,-0.5937435626983643,0.3512371778488159,-1.3647091388702393
1729696945044558800,8.526558837890626,-0.8313631415367126,-0.258999228477478,-1.780696153640747
1729696945054328000,8.536328125,-0.4862344264984131,-1.077534556388855,-1.5699537992477417
1729696945064097500,8.54609765625,0.20341213047504425,-0.6505523324012756,-0.5937435626983643
1729696945073866800,8.55586669921875,0.5931326746940613,1.91386079788208,0.3292466700077057
1729696945083636000,8.565635986328125,0.624285876750946,4.240654468536377,1.123958945274353
1729696945093405200,8.5754052734375,0.46851983666419983,4.167352676391602,1.3041589260101318
1729696945103174400,8.58517431640625,0.25472331047058105,3.331026554107666,0.9126058220863342
1729696945112943600,8.594943603515626,-0.056808795779943466,2.613281011581421,0.15332266688346863
1729696945122712800,8.604712890625,-0.3512371778488159,2.072681188583374,-0.6145123243331909
1729696945132482000,8.61448193359375,-0.4605788290500641,1.9028655290603638,-0.9034430980682373
1729696945142251500,8.62425146484375,-0.42576053738594055,1.714113712310791,-0.8643488883972168
1729696945152020700,8.634020751953125,-0.2870981991291046,1.4416759014129639,-0.70308518409729
1729696945161790000,8.6437900390625,-0.20585553348064423,1.2149752378463745,-0.5558710098266602
1729696945171559200,8.65355908203125,-0.19974705576896667,1.1233481168746948,-0.499673068523407
1729696945181328400,8.663328369140626,-0.25716668367385864,1.1532796621322632,-0.5222744345664978
1729696945191097600,8.67309765625,-0.35856732726097107,1.2192511558532715,-0.5729747414588928
1729696945200866800,8.68286669921875,-0.4886777997016907,1.277281641960144,-0.6151232123374939
1729696945210636300,8.69263623046875,-0.6365028619766235,1.1850436925888062,-0.6474980711936951
1729696945220405500,8.702405517578125,-0.7873821258544922,0.5815265774726868,-0.7214106321334839
1729696945230174700,8.7121748046875,-0.8539644479751587,0.19241689145565033,-0.7971556782722473
1729696945239944000,8.72194384765625,-0.8228112459182739,0.1575985997915268,-0.7757760286331177
1729696945249713200,8.731713134765625,-0.8167027831077576,-0.0024433890357613564,-0.7360709309577942
1729696945259482400,8.741482421875,-0.7873821258544922,-0.004275931045413017,-0.7000309824943542
1729696945269251600,8.75125146484375,-0.7983773946762085,-0.021990500390529633,-0.6939224600791931
1729696945279020800,8.761020751953126,-0.809983491897583,-0.02626643143594265,-0.7391251921653748
1729696945288790300,8.770790283203125,-0.8771766424179077,-0.05741964280605316,-0.8350282311439514
1729696945298559500,8.7805595703125,-0.9327637553215027,-0.10995250940322876,-0.9425373077392578
1729696945308328700,8.79032861328125,-0.9248227477073669,-0.15454435348510742,-1.0115630626678467
1729696945318098000,8.800097900390625,-0.916270911693573,-0.18875180184841156,-1.0323318243026733
1729696945327867100,8.8098671875,-0.8710681796073914,-0.20768806338310242,-1.009730577468872
1729696945337636400,8.81963623046875,-0.8264763355255127,-0.2339545041322708,-0.9724688529968262
1729696945347405600,8.829405517578126,-0.8228112459182739,-0.28221142292022705,-0.9645278453826904
1729696945357174800,8.8391748046875,-0.8515210747718811,-0.3432961702346802,-1.0091196298599243
1729696945366944300,8.8489443359375,-0.9083298444747925,-0.4086568057537079,-1.1221264600753784
1729696945376713500,8.85871337890625,-0.9590302109718323,-0.4831801950931549,-1.313321590423584
1729696945386482700,8.868482666015625,-0.9895725846290588,-0.5570927262306213,-1.5614019632339478
1729696945396252000,8.878251953125,-1.0005677938461304,-0.5870242118835449,-1.9230235815048218
1729696945406021000,8.888021240234375,-0.9938485026359558,-0.30664533376693726,-2.680474042892456
1729696945415790300,8.897790283203125,-0.8979454636573792,0.42881476879119873,-3.3462977409362793
1729696945425559600,8.9075595703125,-0.6872031688690186,1.1972606182098389,-3.2601680755615234
1729696945435329000,8.9173291015625,-0.4477510452270508,1.7379368543624878,-2.5943446159362793
1729696945445098200,8.92709814453125,-0.25289076566696167,1.871712327003479,-1.6353144645690918
1729696945454867500,8.936867431640625,-0.1960819661617279,1.5442981719970703,-0.6413896083831787
1729696945464636700,8.94663671875,-0.21562908589839935,1.0469921827316284,0.10811996459960938
1729696945474406000,8.956406005859375,-0.25655585527420044,0.5509842038154602,0.5375455617904663
1729696945484175000,8.966175048828125,-0.3151971995830536,0.09590301662683487,0.6823163628578186
1729696945493944300,8.9759443359375,-0.3683409094810486,-0.258999228477478,0.6120689511299133
1729696945503713500,8.985713623046875,-0.3762819170951843,-0.446529358625412,0.43919917941093445
1729696945513483000,8.99548291015625,-0.3396310806274414,-0.47585001587867737,0.21868331730365753
1729696945523252200,9.005252197265625,-0.29565006494522095,-0.4159869849681854,-0.038483377546072006
1729696945533021400,9.015021484375,-0.2718270421028137,-0.33169007301330566,-0.2901524603366852
1729696945542790700,9.024790771484374,-0.26938363909721375,-0.2724378705024719,-0.4727957844734192
1729696945552559900,9.034559814453125,-0.28404396772384644,-0.2877090573310852,-0.5412106513977051
1729696945562329000,9.0443291015625,-0.3261924386024475,-0.41354358196258545,-0.5008947253227234
1729696945572098300,9.054098388671875,-0.3903313875198364,-0.6768187880516052,-0.37444937229156494
1729696945581867800,9.06386767578125,-0.4605788290500641,-1.0683718919754028,-0.19302773475646973
1729696945591637000,9.073636962890625,-0.5015056133270264,-1.5357463359832764,-0.005497625097632408
1729696945601406200,9.08340625,-0.5045598149299622,-1.9957143068313599,0.13499724864959717
1729696945611175400,9.093175537109374,-0.47768256068229675,-2.338399648666382,0.18997350335121155
1729696945620944600,9.102944580078125,-0.40254834294319153,-2.3628334999084473,0.130721315741539
1729696945630713900,9.1127138671875,-0.23090025782585144,-1.543687343597412,-0.17531315982341766
1729696945640483000,9.122483154296875,-0.03176405653357506,0.15332266688346863,-0.6108472347259521
1729696945650252300,9.132252197265625,0.08979454636573792,1.7813069820404053,-0.6981984376907349
1729696945660021800,9.142021728515624,0.21746163070201874,2.9535229206085205,0.26877278089523315
1729696945669791000,9.151791015625,0.5222744345664978,3.3847811222076416,2.0164830684661865
1729696945679560200,9.161560302734374,0.8710681796073914,2.897324800491333,3.178314685821533
1729696945689329400,9.171329345703125,1.0946383476257324,2.145371913909912,3.4574718475341797
1729696945699098600,9.1810986328125,1.1361758708953857,1.4764941930770874,3.2778828144073486
1729696945708867800,9.190867919921875,1.0628741979599,0.809983491897583,2.825244903564453
1729696945718637000,9.200636962890625,1.174659252166748,0.3561239540576935,2.4850029945373535
1729696945728406500,9.210406494140624,1.5180318355560303,-0.023212196305394173,2.442243814468384
1729696945738175700,9.22017578125,1.908974051475525,-0.5699204802513123,2.573575973510742
1729696945747945000,9.229945068359376,2.1520912647247314,-1.327981948852539,2.7403371334075928
1729696945757714200,9.239714111328125,2.1117753982543945,-1.8869835138320923,2.8728909492492676
1729696945767483400,9.2494833984375,1.9859408140182495,-2.0213699340820312,2.86861515045166
1729696945777252600,9.259252685546874,1.7018967866897583,-1.8466676473617554,2.7024645805358887
1729696945787021800,9.269021728515625,1.2638429403305054,-1.4490060806274414,2.425139904022217
1729696945796791000,9.278791015625,0.7592831254005432,-0.8050966858863831,2.139874219894409
1729696945806560500,9.288560546875,0.3689517378807068,-0.04947862774133682,1.880264163017273
1729696945816329700,9.298329833984376,0.258999228477478,0.6139014959335327,1.6438663005828857
1729696945826099000,9.308098876953125,0.3970507085323334,0.9345963001251221,1.4392324686050415
1729696945835868200,9.3178681640625,0.5723638534545898,1.063485026359558,1.199093222618103
1729696945845637400,9.327637451171874,0.7776085734367371,1.3952515125274658,0.9187142848968506
1729696945855406600,9.337406494140625,0.9620844125747681,1.5601803064346313,0.6071822047233582
1729696945865176000,9.347176025390626,1.0866972208023071,1.5650670528411865,0.2852656841278076
1729696945874945300,9.3569453125,1.1728267669677734,1.49848473072052,-0.01038440316915512
1729696945884714500,9.366714599609375,1.211920976638794,1.3334795236587524,-0.2779355049133301
1729696945894483700,9.376483642578124,1.2571237087249756,1.0494356155395508,-0.4752391576766968
1729696945904253000,9.3862529296875,1.3072131872177124,0.7244648337364197,-0.5387672781944275
1729696945914022100,9.396022216796876,1.3224843740463257,0.39949411153793335,-0.45080527663230896
1729696945923791400,9.405791259765625,1.271173119544983,0.01588202826678753,-0.237008735537529
1729696945933560600,9.415560546875,1.1404517889022827,-0.3530697226524353,-0.02076880633831024
1729696945943329800,9.425329833984375,0.9834640622138977,-0.5967977643013,0.09529217332601547
1729696945953099300,9.435099365234375,0.8191461563110352,-0.7886037826538086,0.14049486815929413
1729696945962868500,9.444868408203124,0.6621584296226501,-0.966971218585968,0.1459924876689911
1729696945972637700,9.4546376953125,0.546097457408905,-1.1575555801391602,0.08674030750989914
1729696945982407000,9.464406982421876,0.45324867963790894,-1.4416759014129639,-0.04153761267662048
1729696945992176000,9.474176025390625,0.3524588644504547,-1.8118493556976318,-0.18142163753509521
1729696946001945300,9.4839453125,0.22723518311977386,-2.2070674896240234,-0.26999449729919434
1729696946011714800,9.49371484375,0.08307522535324097,-2.4935548305511475,-0.3151971995830536
1729696946021484000,9.503484130859375,-0.06291726976633072,-2.627941370010376,-0.3555130958557129
1729696946031253200,9.513253173828126,-0.19424942135810852,-2.6560401916503906,-0.4220954477787018
1729696946041022500,9.5230224609375,-0.30908870697021484,-2.6242761611938477,-0.5357130169868469
1729696946050791700,9.532791748046876,-0.4178195297718048,-2.602285623550415,-0.6664343476295471
1729696946060561000,9.542560791015624,-0.5479300022125244,-2.584571123123169,-0.8002098798751831
1729696946070330000,9.552330078125,-0.6951441764831543,-2.555861234664917,-0.9364288449287415
1729696946080099300,9.562099365234374,-0.8191461563110352,-2.4214749336242676,-1.0085088014602661
1729696946089868800,9.571868896484375,-0.91566002368927,-2.139874219894409,-0.9321529269218445
1729696946099638000,9.581637939453126,-0.9510892033576965,-1.8882052898406982,-0.8032641410827637
1729696946109407200,9.5914072265625,-0.8790091872215271,-1.4679423570632935,-0.6401679515838623
1729696946119176400,9.601176513671875,-0.6377245187759399,-0.7018635272979736,-0.17286977171897888
1729696946128945700,9.610945556640624,-0.18081079423427582,0.2357870489358902,0.2223484069108963
1729696946138715000,9.62071484375,0.3139754831790924,1.442286729812622,0.18875180184841156
1729696946148484000,9.630484130859376,0.7403468489646912,2.6639811992645264,0.08979454636573792
1729696946158253600,9.640253662109375,1.1202938556671143,2.8380727767944336,0.10750912129878998
1729696946168022800,9.650022705078126,1.1648857593536377,1.6982316970825195,0.21379654109477997
1729696946177792000,9.6597919921875,0.8423583507537842,0.5161659121513367,0.2516690790653229
1729696946187561200,9.669561279296875,0.6462764143943787,-0.47951510548591614,0.1948602795600891
1729696946197330400,9.679330322265624,0.5558710098266602,-1.1697725057601929,0.05497625470161438
1729696946207099600,9.689099609375,0.469741553068161,-1.469774842262268,-0.20646637678146362
1729696946216868900,9.698868896484376,0.3176405727863312,-1.2565127611160278,-0.5650337338447571
1729696946226638000,9.70863818359375,0.07269082218408585,-0.6719319820404053,-0.8863393664360046
1729696946236407600,9.718407470703125,-0.21929416060447693,-0.208298921585083,-1.0799779891967773
1729696946246176800,9.7281767578125,-0.43919917941093445,-0.1453816443681717,-1.1716049909591675
1729696946255946000,9.737946044921875,-0.3549022674560547,-0.4605788290500641,-0.9083298444747925
1729696946265715200,9.747715087890626,0.012216945178806782,-1.1538904905319214,-0.4294256269931793
1729696946275484400,9.757484375,0.24067382514476776,-1.3647091388702393,0.0030542362947016954
1729696946285253600,9.767253662109376,0.08368607610464096,-0.13499724864959717,0.5222744345664978
1729696946295023000,9.777023193359375,-0.13927318155765533,1.3586006164550781,1.0640959739685059
1729696946304792300,9.786792236328125,-0.24556060135364532,1.821012020111084,1.2412415742874146
1729696946314561500,9.7965615234375,-0.25777754187583923,2.0506906509399414,0.9083298444747925
1729696946324330800,9.806330810546875,-0.31092125177383423,1.9309645891189575,0.006719320081174374
1729696946334100000,9.816099853515626,-0.4220954477787018,1.5589585304260254,-0.8857285380363464
1729696946343869200,9.825869140625,-0.6511631608009338,1.4832135438919067,-1.1508362293243408
1729696946353638400,9.835638427734375,-0.8777875304222107,1.4758833646774292,-1.1264023780822754
1729696946363407600,9.84540771484375,-0.8918370008468628,1.2339115142822266,-0.8790091872215271
1729696946373176800,9.8551767578125,-0.5913001298904419,1.032942771911621,-0.41110020875930786
1729696946382946300,9.8649462890625,-0.2999260127544403,0.9077190160751343,0.009773556143045425
1729696946392715500,9.874715576171875,-0.26632940769195557,0.9914051294326782,0.1710372269153595
1729696946402484700,9.884484619140625,-0.40071579813957214,1.2620104551315308,0.07085828483104706
1729696946412254000,9.89425390625,-0.5387672781944275,1.5693429708480835,-0.1313321590423584
1729696946422023200,9.904023193359375,-0.6346703171730042,1.780696153640747,-0.30786702036857605
1729696946431792400,9.91379248046875,-0.6810947060585022,1.756262183189392,-0.4459185004234314
1729696946441561900,9.923561767578125,-0.6371136903762817,1.64569890499115,-0.5302154421806335
1729696946451331000,9.9333310546875,-0.5796940326690674,1.3194301128387451,-0.6047387719154358
1729696946461100300,9.943100341796875,-0.53143709897995,1.2369656562805176,-0.6560499668121338
1729696946470869500,9.952869384765625,-0.5265503525733948,1.1642749309539795,-0.6664343476295471
1729696946480638700,9.962638671875,-0.5949652194976807,0.9144383668899536,-0.652384877204895
1729696946490408000,9.972407958984375,-0.7214106321334839,0.497229665517807,-0.6139014959335327
1729696946500177200,9.98217724609375,-0.9229902029037476,-0.06413896381855011,-0.5723638534545898
1729696946509946400,9.9919462890625,-1.0488247871398926,-0.5033381581306458,-0.5748072862625122
1729696946519715800,10.0017158203125,-1.0836430788040161,-0.7415685653686523,-0.656660795211792
1729696946529485000,10.011485107421874,-1.111131191253662,-0.846023440361023,-0.7684458494186401
1729696946539254300,10.021254150390625,-1.1227372884750366,-0.8820634484291077,-0.8576295375823975
1729696946549023500,10.0310234375,-1.1056334972381592,-0.8496885299682617,-0.91566002368927
1729696946558792700,10.040792724609375,-1.0958600044250488,-0.8209787011146545,-0.9688037633895874
1729696946568562000,10.05056201171875,-1.1099094152450562,-0.8594620823860168,-1.0518789291381836
1729696946578331100,10.0603310546875,-1.1422843933105469,-0.9730796813964844,-1.170383334159851
1729696946588100600,10.0701005859375,-1.1917630434036255,-1.0891406536102295,-1.3372210264205933
1729696946597869800,10.079869873046874,-1.2381874322891235,-1.0940274000167847,-1.5552934408187866
1729696946607639000,10.08963916015625,-1.2216944694519043,-0.9956810474395752,-1.8112385272979736
1729696946617408300,10.099408203125,-1.1349542140960693,-0.8313631415367126,-2.1465935707092285
1729696946627177500,10.109177490234375,-1.0030112266540527,-0.5021164417266846,-2.6377148628234863
1729696946636946700,10.11894677734375,-0.8386932611465454,-0.08307522535324097,-3.2021377086639404
1729696946646716000,10.1287158203125,-0.6792621612548828,0.28221142292022705,-3.5038962364196777
1729696946656485000,10.138485107421875,-0.5528167486190796,0.6694886088371277,-3.4367029666900635
1729696946666254600,10.148254638671874,-0.46729815006256104,0.9413156509399414,-3.0671403408050537
1729696946676023800,10.15802392578125,-0.390942245721817,0.9559759497642517,-2.474618673324585
1729696946685793000,10.16779296875,-0.33474430441856384,0.6365028619766235,-1.6841822862625122
1729696946695562200,10.177562255859375,-0.33413344621658325,0.08063183724880219,-0.8069292306900024
1729696946705331500,10.18733154296875,-0.36039987206459045,-0.416597843170166,-0.1692046970129013
1729696946715100700,10.1971005859375,-0.36101073026657104,-0.5589252710342407,0.1429382562637329
1729696946724870000,10.206869873046875,-0.31825143098831177,-0.3512371778488159,0.23151111602783203
1729696946734639400,10.216639404296876,-0.27060532569885254,-0.03298575058579445,0.2217375487089157
1729696946744408600,10.22640869140625,-0.2473931461572647,0.13438639044761658,0.23090025782585144
1729696946754177800,10.236177734375,-0.26938363909721375,0.061084724962711334,0.30603447556495667
1729696946763947000,10.245947021484374,-0.33596599102020264,-0.14171656966209412,0.4422534108161926
1729696946773716200,10.25571630859375,-0.420873761177063,-0.3787252902984619,0.6035171151161194
1729696946783485400,10.2654853515625,-0.48989951610565186,-0.6352811455726624,0.7537854909896851
1729696946793254700,10.275254638671875,-0.5283828973770142,-0.91566002368927,0.8643488883972168
1729696946803024100,10.285024169921876,-0.5045598149299622,-1.2198619842529297,0.8906152844429016
1729696946812793300,10.29479345703125,-0.41048935055732727,-1.4691640138626099,0.8069292306900024
1729696946822562600,10.3045625,-0.288930743932724,-1.381201982498169,0.6016845703125
1729696946832331800,10.314331787109374,-0.11972606182098389,-0.6493306159973145,0.24311721324920654
1729696946842101000,10.32410107421875,0.09956810623407364,0.5283828973770142,-0.11422843486070633
1729696946851870200,10.3338701171875,0.2895416021347046,1.640201210975647,-0.2223484069108963
1729696946861639400,10.343639404296875,0.46729815006256104,2.393375873565674,0.00916270911693573
1729696946871408600,10.35340869140625,0.7110261917114258,2.974902391433716,0.8301414251327515
1729696946881177900,10.363177734375,1.0445488691329956,3.400663137435913,2.353060007095337
1729696946890947300,10.372947265625,1.3665416240692139,2.983454465866089,3.4800732135772705
1729696946900716500,10.382716552734376,1.6450880765914917,2.1154403686523438,3.690204620361328
1729696946910485800,10.39248583984375,1.92363440990448,1.5045931339263916,3.4916791915893555
1729696946920255000,10.4022548828125,2.1612539291381836,0.7959339618682861,3.3230855464935303
1729696946930024200,10.412024169921875,2.347562313079834,-0.34879377484321594,3.33652400970459
1729696946939793400,10.42179345703125,2.4507956504821777,-1.6151565313339233,3.3786725997924805
1729696946949563000,10.43156298828125,2.488668203353882,-2.518599510192871,3.278493642807007
1729696946959332000,10.44133203125,2.4856138229370117,-3.082411527633667,2.998725652694702
1729696946969101300,10.451101318359376,2.171638250350952,-3.166097640991211,2.6230545043945312
1729696946978870500,10.46087060546875,1.6047720909118652,-2.769657850265503,2.2186737060546875
1729696946988639700,10.4706396484375,0.9003888368606567,-2.1062777042388916,1.825287938117981
1729696946998409000,10.480408935546874,0.265718549489975,-1.382423758506775,1.4483952522277832
1729696947008178200,10.49017822265625,-0.06780404597520828,-0.7171346545219421,1.170383334159851
1729696947017947400,10.499947509765626,-0.0030542362947016954,-0.182643324136734,1.0561549663543701
1729696947027716900,10.509716796875,0.25716668367385864,0.05497625470161438,1.0146173238754272
1729696947037486000,10.519486083984376,0.5100574493408203,0.20707722008228302,0.9425373077392578
1729696947047255300,10.52925537109375,0.735460102558136,0.5937435626983643,0.7941014170646667
1729696947057024500,10.5390244140625,0.856407880783081,0.9773555994033813,0.6181774139404297
1729696947066793700,10.548793701171874,0.9290986657142639,1.1899304389953613,0.4856235682964325
1729696947076563000,10.55856298828125,0.9510892033576965,1.1954281330108643,0.40132665634155273
1729696947086332400,10.56833251953125,0.9339854717254639,0.9761339426040649,0.261442631483078
1729696947096101600,10.5781015625,0.9382613897323608,0.40132665634155273,-0.013438640162348747
1729696947105870800,10.587870849609375,1.0286667346954346,-0.5283828973770142,-0.38849884271621704
1729696947115640000,10.59764013671875,1.1251806020736694,-1.4123551845550537,-0.7183563709259033
1729696947125409300,10.6074091796875,1.1318999528884888,-1.9517333507537842,-0.9535325765609741
1729696947135178500,10.617178466796876,1.058598279953003,-2.1123862266540527,-1.063485026359558
1729696947144947700,10.62694775390625,0.939483106136322,-1.984719157218933,-1.0579874515533447
1729696947154717000,10.636717041015626,0.8350282311439514,-1.5021498203277588,-0.9364288449287415
1729696947164486400,10.646486328125,0.7653915882110596,-0.9284878373146057,-0.7244648337364197
1729696947174255600,10.656255615234375,0.6975875496864319,-0.7769976854324341,-0.48989951610565186
1729696947184024800,10.66602490234375,0.6310052275657654,-0.8783983588218689,-0.3011476993560791
1729696947193794000,10.6757939453125,0.47829338908195496,-1.1074661016464233,-0.21868331730365753
1729696947203563300,10.685563232421876,0.24311721324920654,-1.4618338346481323,-0.2345653474330902
1729696947213332500,10.69533251953125,-0.01038440316915512,-1.8869835138320923,-0.34757208824157715
1729696947223101700,10.705101806640625,-0.21746163070201874,-2.2443292140960693,-0.48806697130203247
1729696947232871200,10.71487109375,-0.3683409094810486,-2.3945975303649902,-0.5668662786483765
1729696947242640400,10.724640380859375,-0.4978405237197876,-2.4104795455932617,-0.5558710098266602
1729696947252409600,10.73440966796875,-0.6151232123374939,-2.3316802978515625,-0.49295374751091003
1729696947262178800,10.7441787109375,-0.6731536984443665,-2.246161699295044,-0.40987852215766907
1729696947271948000,10.753947998046876,-0.6865923404693604,-2.098947525024414,-0.32191649079322815
1729696947281717200,10.76371728515625,-0.5980194807052612,-1.757483959197998,-0.1453816443681717
1729696947291486500,10.773486572265625,-0.20524467527866364,-1.258345365524292,0.05925218388438225
1729696947301255700,10.783255615234374,0.39949411153793335,-0.4953971207141876,0.011606098152697086
1729696947311025200,10.793025146484375,0.9761339426040649,0.7446228265762329,-0.02993151545524597
1729696947320794400,10.80279443359375,1.2980504035949707,2.19179630279541,-0.12583453953266144
1729696947330563600,10.8125634765625,1.3108782768249512,2.97001576423645,-0.20524467527866364
1729696947340332800,10.822332763671875,1.1899304389953613,2.3292369842529297,-0.045202698558568954
1729696947350102000,10.83210205078125,0.9266552925109863,0.7690566778182983,0.1557660549879074
1729696947359871200,10.841871337890625,0.6377245187759399,-0.5833591222763062,0.19974705576896667
1729696947369640700,10.851640625,0.4422534108161926,-1.5369681119918823,0.12644538283348083
1729696947379410000,10.861409912109375,0.2113531529903412,-2.161864757537842,-0.012827792204916477
1729696947389179100,10.87117919921875,-0.028098974376916885,-2.486835479736328,-0.19058434665203094
1729696947398948400,10.8809482421875,-0.24617144465446472,-2.4385786056518555,-0.42759308218955994
1729696947408717600,10.890717529296875,-0.446529358625412,-2.107499361038208,-0.707361102104187
1729696947418486800,10.90048681640625,-0.5992411375045776,-1.7202222347259521,-1.0091196298599243
1729696947428256000,10.910256103515625,-0.5570927262306213,-1.3457728624343872,-1.2100883722305298
1729696947438025200,10.920025146484376,-0.13438639044761658,-0.48073679208755493,-0.8295305967330933
1729696947447794700,10.929794677734375,0.5131117105484009,1.0836430788040161,0.1178935244679451
1729696947457564000,10.93956396484375,0.7366818189620972,1.8930920362472534,0.6145123243331909
1729696947467333000,10.9493330078125,0.5399889945983887,2.0769569873809814,0.730573296546936
1729696947477102300,10.959102294921875,0.265718549489975,1.9077523946762085,0.4416425824165344
1729696947486871600,10.96887158203125,-0.07635590434074402,1.6756303310394287,0.02993151545524597
1729696947496640800,10.978640869140625,-0.40254834294319153,1.507036566734314,-0.2736595869064331
1729696947506410000,10.988409912109375,-0.5961869359016418,1.5455199480056763,-0.314586341381073
1729696947516179500,10.998179443359374,-0.7036960124969482,1.7214438915252686,-0.21990501880645752
1729696947525948700,11.00794873046875,-0.7458444833755493,1.6139347553253174,-0.16004198789596558
1729696947535718000,11.0177177734375,-0.7104153633117676,1.364098310470581,-0.15515519678592682
1729696947545487000,11.027487060546875,-0.5338805317878723,1.877210021018982,-0.1563768982887268
1729696947555256300,11.03725634765625,-0.31947311758995056,2.524097204208374,-0.21501824259757996
1729696947565025500,11.047025634765625,-0.1985253542661667,3.206413507461548,-0.3561239540576935
1729696947574794800,11.056794677734375,-0.22479179501533508,3.7409050464630127,-0.4886777997016907
1729696947584564000,11.06656396484375,-0.32008397579193115,3.966918468475342,-0.5289937257766724
1729696947594333400,11.07633349609375,-0.43736663460731506,3.8539116382598877,-0.46302223205566406
1729696947604102700,11.0861025390625,-0.5790832042694092,3.4281511306762695,-0.34635040163993835
1729696947613871900,11.095871826171875,-0.7214106321334839,2.827688217163086,-0.2211267054080963
1729696947623641000,11.10564111328125,-0.8179244995117188,2.1355984210968018,-0.12888877093791962
1729696947633410300,11.115410400390624,-0.869846522808075,1.4459518194198608,-0.10262233763933182
1729696947643179500,11.125179443359375,-0.8759549856185913,0.8747332692146301,-0.16004198789596558
1729696947652949000,11.134948974609374,-0.8496885299682617,0.4318690001964569,-0.3005368411540985
1729696947662718200,11.14471826171875,-0.8179244995117188,0.08063183724880219,-0.49112120270729065
1729696947672487400,11.1544873046875,-0.80937260389328,-0.22662433981895447,-0.684148907661438
1729696947682256600,11.164256591796875,-0.8209787011146545,-0.522885262966156,-0.8393041491508484
1729696947692025900,11.17402587890625,-0.9779664874076843,-0.5357130169868469,-0.8484668135643005
1729696947701795000,11.183795166015624,-1.1838220357894897,-0.33230090141296387,-0.7928797602653503
1729696947711564300,11.193564208984375,-1.0488247871398926,-0.4416425824165344,-0.9688037633895874
1729696947721333500,11.20333349609375,-0.9999569654464722,-0.0916270911693573,-0.9590302109718323
1729696947731103000,11.21310302734375,-0.9181034564971924,0.07207997888326645,-1.014006495475769
1729696947740872200,11.2228720703125,-0.8887827396392822,0.32313820719718933,-1.0024003982543945
1729696947750641400,11.232641357421874,-0.8765658140182495,0.4074351191520691,-1.0805888175964355
1729696947760410600,11.24241064453125,-0.9407047629356384,0.3567348122596741,-1.221083641052246
1729696947770179800,11.252179931640624,-1.0512681007385254,0.22906772792339325,-1.3989166021347046
1729696947779949000,11.261948974609375,-1.0714260339736938,0.20402298867702484,-1.5644562244415283
1729696947789718500,11.271718505859376,-1.009730577468872,0.24678228795528412,-1.7391585111618042
1729696947799487700,11.28148779296875,-0.9284878373146057,0.3274141252040863,-1.9541767835617065
1729696947809257000,11.291257080078125,-0.8557969927787781,0.4422534108161926,-2.220506191253662
1729696947819026200,11.301026123046874,-0.7678350210189819,0.5644228458404541,-2.4850029945373535
1729696947828795400,11.31079541015625,-0.6872031688690186,0.5125008225440979,-2.521653890609741
1729696947838564600,11.320564697265626,-0.6218425035476685,0.22051586210727692,-2.269373893737793
1729696947848333800,11.330333740234375,-0.5900784730911255,-0.21807247400283813,-1.8753774166107178
1729696947858103000,11.34010302734375,-0.5686988234519958,-0.6633801460266113,-1.5198643207550049
1729696947867872500,11.34987255859375,-0.5595360994338989,-0.8832851648330688,-1.3421077728271484
1729696947877641700,11.359641845703125,-0.5668662786483765,-0.7843278646469116,-1.225359559059143
1729696947887411000,11.369410888671876,-0.5864133834838867,-0.5149442553520203,-0.9321529269218445
1729696947897180200,11.37918017578125,-0.5772506594657898,-0.2345653474330902,-0.49356457591056824
1729696947906949400,11.388949462890626,-0.5204418897628784,-0.08185353130102158,-0.062306419014930725
1729696947916718600,11.398718505859375,-0.4318690001964569,-0.09040539711713791,0.2498365342617035
1729696947926487800,11.40848779296875,-0.342074453830719,-0.130721315741539,0.41232189536094666
1729696947936257300,11.41825732421875,-0.2754921019077301,-0.07574506103992462,0.4752391576766968
1729696947946026500,11.428026611328125,-0.23334364593029022,0.10689827054738998,0.4813476502895355
1729696947955795700,11.437795654296876,-0.22479179501533508,0.3512371778488159,0.4459185004234314
1729696947965565000,11.44756494140625,-0.21746163070201874,0.5564818382263184,0.3921639323234558
1729696947975334100,11.457334228515625,-0.17958909273147583,0.6633801460266113,0.3695625960826874
1729696947985103400,11.467103271484374,-0.12827792763710022,0.7018635272979736,0.38788801431655884
1729696947994872600,11.47687255859375,-0.042759306728839874,0.781884491443634,0.41537612676620483
1729696948004642000,11.48664208984375,0.04214845970273018,1.0066763162612915,0.34696123003959656
1729696948014411300,11.496411376953125,0.12827792763710022,1.5198643207550049,0.20280128717422485
1729696948024180500,11.506180419921876,0.24678228795528412,2.1991264820098877,0.18142163753509521
1729696948033949700,11.51594970703125,0.4172086715698242,2.717735767364502,0.40987852215766907
1729696948043719000,11.525718994140625,0.656660795211792,2.7140707969665527,0.9498674869537354
1729696948053488000,11.535488037109374,0.9852966070175171,2.235166549682617,1.9150824546813965
1729696948063257300,11.54525732421875,1.334777593612671,1.5125341415405273,3.044539213180542
1729696948073026800,11.55502685546875,1.5687321424484253,0.7513421177864075,3.582695484161377
1729696948082796000,11.564796142578125,1.8283421993255615,0.5375455617904663,3.6932590007781982
1729696948092565200,11.574565185546875,2.1441502571105957,0.5790832042694092,3.747624397277832
1729696948102334500,11.58433447265625,2.452017307281494,0.06169557198882103,3.791605234146118
1729696948112103700,11.594103759765625,2.598620653152466,-0.9779664874076843,3.750067710876465
1729696948121873000,11.603872802734376,2.581516981124878,-2.333512783050537,3.3731749057769775
1729696948131642000,11.61364208984375,2.3005270957946777,-3.43792462348938,2.899768352508545
1729696948141411600,11.62341162109375,1.8234554529190063,-3.9663076400756836,2.4935548305511475
1729696948151180800,11.633180908203125,1.2919420003890991,-4.026857852935791,2.0690159797668457
1729696948160950000,11.642949951171875,0.763559103012085,-3.5698678493499756,1.6829605102539062
1729696948170719200,11.65271923828125,0.3512371778488159,-2.754997491836548,1.389753818511963
1729696948180488400,11.662488525390625,0.12827792763710022,-1.8173469305038452,1.1679399013519287
1729696948190257700,11.672257568359376,0.15393351018428802,-0.9816315174102783,1.0537115335464478
1729696948200027000,11.68202685546875,0.2919849753379822,-0.9639169573783875,0.9871291518211365
1729696948209796400,11.69179638671875,0.4471401870250702,-0.1319430023431778,0.8832851648330688
1729696948219565600,11.701565673828124,0.6994200944900513,1.0573766231536865,0.7403468489646912
1729696948229334800,11.711334716796875,0.9266552925109863,1.3653199672698975,0.5668662786483765
1729696948239104000,11.72110400390625,1.087918996810913,1.77642023563385,0.33352261781692505
1729696948248873200,11.730873291015625,1.2271921634674072,1.9437923431396484,0.04214845970273018
1729696948258642400,11.740642333984376,1.3793694972991943,1.5925551652908325,-0.26938363909721375
1729696948268412000,11.750411865234375,1.4685531854629517,0.9602518677711487,-0.5155550837516785
1729696948278181000,11.76018115234375,1.4154094457626343,0.37200596928596497,-0.6474980711936951
1729696948287950300,11.769950439453124,1.2870551347732544,0.005497625097632408,-0.6652126908302307
1729696948297719600,11.779719482421875,1.1465603113174438,-0.1319430023431778,-0.5057815313339233
1729696948307488800,11.78948876953125,1.0152281522750854,-0.2363978922367096,-0.25716668367385864
1729696948317258000,11.799258056640625,0.9071081876754761,-0.37139514088630676,-0.055587101727724075
1729696948327027200,11.809027099609375,0.8215895891189575,-0.5418215394020081,0.04153761267662048
1729696948336796400,11.81879638671875,0.7427902817726135,-0.7837170362472534,0.05070032179355621
1729696948346566000,11.82856591796875,0.6322268843650818,-1.0946383476257324,0.004275931045413017
1729696948356335000,11.838335205078126,0.4960079789161682,-1.4196853637695312,-0.05925218388438225
1729696948366104300,11.848104248046875,0.33718767762184143,-1.6994534730911255,-0.11483928561210632
1729696948375873500,11.85787353515625,0.16859383881092072,-1.9120283126831055,-0.17286977171897888
1729696948385642800,11.867642822265625,0.005497625097632408,-1.997546911239624,-0.2626643180847168
1729696948395412000,11.877411865234375,-0.11667182296514511,-1.9419597387313843,-0.3567348122596741
1729696948405181400,11.887181396484374,-0.2602209448814392,-1.964561104774475,-0.4343124032020569
1729696948414950700,11.89695068359375,-0.448361873626709,-1.9187475442886353,-0.4556920528411865
1729696948424720000,11.906719970703126,-0.6731536984443665,-1.8796533346176147,-0.4605788290500641
1729696948434489000,11.916489013671875,-0.8851176500320435,-1.8594954013824463,-0.43919917941093445
1729696948444258300,11.92625830078125,-1.0720369815826416,-1.8546086549758911,-0.41171106696128845
1729696948454027500,11.936027587890624,-1.1923738718032837,-1.7043402194976807,-0.4068242609500885
1729696948463796700,11.945796630859375,-1.22963547706604,-1.1826002597808838,-0.46851983666419983
1729696948473566200,11.955566162109376,-1.1538904905319214,-0.5448757410049438,-0.5595360994338989
1729696948483335400,11.96533544921875,-0.813648521900177,-0.46302223205566406,-0.3573456406593323
1729696948493104600,11.975104736328126,-0.19119518995285034,-0.33535513281822205,-0.20219044387340546
1729696948502873900,11.984873779296874,0.5283828973770142,1.1862653493881226,-0.2907632887363434
1729696948512643000,11.99464306640625,1.1538904905319214,2.8728909492492676,-0.29565006494522095
1729696948522412300,12.004412353515624,1.497262954711914,3.119673252105713,-0.19363857805728912
1729696948532181500,12.014181396484375,1.3298144340515137,2.1936287879943848,-0.037261683493852615
1729696948541951000,12.023950927734376,1.0048437118530273,0.8955020904541016,0.06658235192298889
1729696948551720200,12.03372021484375,0.7690566778182983,-0.3762819170951843,0.017714571207761765
1729696948561489400,12.043489501953125,0.5803049206733704,-1.2070342302322388,-0.1832541823387146
1729696948571258600,12.053258544921874,0.37200596928596497,-1.4239612817764282,-0.5002838969230652
1729696948581027800,12.06302783203125,0.1050657257437706,-1.1123528480529785,-0.8350282311439514
1729696948590797000,12.072797119140626,-0.13805148005485535,-0.6554391384124756,-1.032942771911621
1729696948600566500,12.08256640625,-0.25655585527420044,-0.34757208824157715,-0.9620844125747681
1729696948610335700,12.092335693359376,-0.08002099394798279,-0.10811996459960938,-0.25777754187583923
1729696948620105000,12.10210498046875,0.44042086601257324,-0.4214846193790436,0.3970507085323334
1729696948629874200,12.111874267578125,0.8667922616004944,-1.2882769107818604,0.29442837834358215
1729696948639643400,12.121643310546874,0.7568397521972656,-1.3732609748840332,0.3005368411540985
1729696948649412600,12.13141259765625,0.3414636254310608,-0.517998456954956,0.5717530250549316
1729696948659181800,12.141181884765626,0.047646086663007736,0.3274141252040863,0.9462023973464966
1729696948668951300,12.150951416015625,-0.17470231652259827,1.1038010120391846,1.1312891244888306
1729696948678720500,12.160720458984375,-0.47768256068229675,1.3273711204528809,0.7837170362472534
1729696948688489700,12.17048974609375,-0.9058864712715149,0.9608627557754517,-0.11239589750766754
1729696948698259000,12.180259033203125,-1.123958945274353,1.197871446609497,-0.7598940134048462
1729696948708028200,12.190028076171876,-1.2699514627456665,1.644477128982544,-0.9834640622138977
1729696948717797400,12.19979736328125,-1.4251830577850342,2.1355984210968018,-1.0885298252105713
