time,seconds_elapsed,z,y,x
1729696936564856300,0.046856201171875,0.00007635590736754239,-0.005344913341104984,-0.0009926267666742206
1729696936574625500,0.05662548828125,-0.0005344913806766272,0.00992626789957285,0.002672456670552492
1729696936584394800,0.066394775390625,0.000687203137204051,0.014813045971095562,0.0051158457063138485
1729696936594164000,0.0761640625,0.00007635590736754239,0.0068720318377017975,0.002672456670552492
1729696936603933200,0.08593310546875,0.00007635590736754239,-0.005955760832875967,-0.0009926267666742206
1729696936613702400,0.095702392578125,0.000687203137204051,-0.012675080448389053,-0.0034360159188508987
1729696936623471600,0.1054716796875,0.000687203137204051,-0.008399149402976036,-0.0022143214009702206
1729696936633240800,0.11524072265625,0.00007635590736754239,0.001374406274408102,0.00022906772210262716
1729696936643010000,0.125010009765625,0.00007635590736754239,0.008704573847353458,0.002061609411612153
1729696936652779300,0.134779296875,0.000687203137204051,0.008093725889921188,0.0014507622690871358
1729696936662548500,0.144548583984375,0.000687203137204051,0.00015271181473508477,-0.0009926267666742206
1729696936672318000,0.15431787109375,0.000687203137204051,-0.007788302376866341,-0.0028251686599105597
1729696936682087200,0.164087158203125,0.00007635590736754239,-0.008399149402976036,-0.0016034740256145597
1729696936691856400,0.1738564453125,0.00007635590736754239,-0.0022906772792339325,-0.00038177953683771193
1729696936701625600,0.18362548828125,0.000687203137204051,0.0050394898280501366,0.0014507622690871358
1729696936711394800,0.193394775390625,0.000687203137204051,0.006261184345930815,0.0014507622690871358
1729696936721164000,0.2031640625,0.00007635590736754239,0.00259610079228878,0.00022906772210262716
1729696936730933200,0.212933349609375,0.000687203137204051,-0.0029015245381742716,-0.0016034740256145597
1729696936740702500,0.222702392578125,0.00007635590736754239,-0.005344913341104984,-0.0016034740256145597
1729696936750471700,0.2324716796875,0.00007635590736754239,-0.0029015245381742716,-0.00038177953683771193
1729696936760241000,0.242240966796875,0.00007635590736754239,0.001985253533348441,0.0008399150101467967
1729696936770010000,0.252010009765625,0.00007635590736754239,0.0050394898280501366,0.0014507622690871358
1729696936779779300,0.261779296875,0.00007635590736754239,0.00259610079228878,0.0008399150101467967
1729696936789548500,0.271548583984375,-0.0005344913806766272,-0.0016798300202935934,-0.00038177953683771193
1729696936799317800,0.28131787109375,0.00007635590736754239,-0.0029015245381742716,-0.0009926267666742206
1729696936809087000,0.2910869140625,0.000687203137204051,-0.0016798300202935934,-0.00038177953683771193
1729696936818856400,0.3008564453125,0.000687203137204051,0.0007635590736754239,0.00022906772210262716
1729696936828625700,0.310625732421875,0.00007635590736754239,0.00259610079228878,0.0014507622690871358
1729696936838395000,0.320394775390625,0.00007635590736754239,0.00259610079228878,0.0008399150101467967
1729696936848164000,0.3301640625,0.00007635590736754239,-0.0004581354442052543,-0.00038177953683771193
1729696936857933300,0.339933349609375,-0.0005344913806766272,-0.0035123717971146107,0.00022906772210262716
1729696936867702500,0.34970263671875,0.00007635590736754239,-0.0016798300202935934,-0.00038177953683771193
1729696936877471700,0.3594716796875,0.00007635590736754239,0.00015271181473508477,0.00022906772210262716
1729696936887241000,0.369240966796875,0.000687203137204051,0.00259610079228878,0.0014507622690871358
1729696936897010200,0.37901025390625,0.00007635590736754239,0.001985253533348441,0.0008399150101467967
1729696936906779400,0.388779296875,0.00007635590736754239,0.00015271181473508477,0.00022906772210262716
1729696936916548600,0.398548583984375,0.000687203137204051,-0.0010689827613532543,-0.00038177953683771193
1729696936926317800,0.40831787109375,-0.0005344913806766272,-0.0004581354442052543,0.0008399150101467967
1729696936936087000,0.418087158203125,0.00007635590736754239,0.001985253533348441,0.0008399150101467967
1729696936945856500,0.4278564453125,-0.0005344913806766272,0.001985253533348441,0.0014507622690871358
1729696936955625700,0.437625732421875,-0.0005344913806766272,0.001985253533348441,0.0008399150101467967
1729696936965395000,0.44739501953125,0.00007635590736754239,-0.0004581354442052543,-0.00038177953683771193
1729696936975164200,0.4571640625,-0.0005344913806766272,-0.0029015245381742716,0.00022906772210262716
1729696936984933400,0.466933349609375,0.000687203137204051,-0.0022906772792339325,0.00022906772210262716
1729696936994702600,0.47670263671875,0.000687203137204051,0.0007635590736754239,0.0008399150101467967
1729696937004471800,0.486471923828125,0.00007635590736754239,0.001374406274408102,0.0008399150101467967
1729696937014241000,0.496240966796875,0.00007635590736754239,0.0007635590736754239,0.0008399150101467967
1729696937024010200,0.50601025390625,0.00007635590736754239,-0.0010689827613532543,0.00022906772210262716
1729696937033779500,0.515779541015625,0.00007635590736754239,0.0007635590736754239,0.0008399150101467967
1729696937043548700,0.525548583984375,-0.0005344913806766272,0.0007635590736754239,0.00022906772210262716
1729696937053318000,0.53531787109375,0.00007635590736754239,-0.0010689827613532543,0.00022906772210262716
1729696937063087000,0.545087158203125,-0.0005344913806766272,-0.0010689827613532543,0.00022906772210262716
1729696937072856300,0.554856201171875,-0.0005344913806766272,0.00015271181473508477,0.00022906772210262716
1729696937082625500,0.56462548828125,0.00007635590736754239,0.0007635590736754239,0.00022906772210262716
1729696937092395000,0.57439501953125,-0.0005344913806766272,0.0007635590736754239,0.00022906772210262716
1729696937102164200,0.584164306640625,0.00007635590736754239,0.001374406274408102,0.0008399150101467967
1729696937111933400,0.593933349609375,0.00007635590736754239,0.0007635590736754239,0.0014507622690871358
1729696937121702700,0.60370263671875,0.00007635590736754239,-0.0016798300202935934,0.0008399150101467967
1729696937131472000,0.613471923828125,-0.0005344913806766272,-0.0022906772792339325,0.00022906772210262716
1729696937141241000,0.623240966796875,0.00007635590736754239,-0.0010689827613532543,0.00022906772210262716
1729696937151010300,0.63301025390625,0.00007635590736754239,-0.0004581354442052543,0.0008399150101467967
1729696937160779500,0.642779541015625,0.00007635590736754239,0.00015271181473508477,0.0014507622690871358
1729696937170548700,0.652548828125,0.00007635590736754239,0.00015271181473508477,0.0008399150101467967
1729696937180318000,0.66231787109375,0.000687203137204051,-0.0004581354442052543,0.00022906772210262716
1729696937190087200,0.672087158203125,0.000687203137204051,-0.0010689827613532543,0.00022906772210262716
1729696937199856400,0.6818564453125,0.00007635590736754239,-0.0016798300202935934,0.0008399150101467967
1729696937209625600,0.69162548828125,0.00007635590736754239,-0.0016798300202935934,0.00022906772210262716
1729696937219394800,0.701394775390625,0.00007635590736754239,-0.0010689827613532543,-0.00038177953683771193
1729696937229164300,0.711164306640625,0.00007635590736754239,0.0007635590736754239,0.0008399150101467967
1729696937238933500,0.72093359375,0.000687203137204051,0.001985253533348441,0.0008399150101467967
1729696937248702700,0.73070263671875,0.000687203137204051,0.00015271181473508477,0.0014507622690871358
1729696937258472000,0.740471923828125,0.00007635590736754239,-0.0010689827613532543,-0.00038177953683771193
1729696937268241200,0.7502412109375,0.000687203137204051,-0.0016798300202935934,0.00022906772210262716
1729696937278010400,0.76001025390625,0.000687203137204051,-0.0016798300202935934,0.00022906772210262716
1729696937287779600,0.769779541015625,0.000687203137204051,-0.0010689827613532543,0.00022906772210262716
1729696937297548800,0.779548828125,0.000687203137204051,-0.0004581354442052543,0.0008399150101467967
1729696937307318000,0.789318115234375,0.000687203137204051,0.00015271181473508477,0.0014507622690871358
1729696937317087200,0.799087158203125,0.00007635590736754239,0.00015271181473508477,0.00022906772210262716
1729696937326856400,0.8088564453125,0.000687203137204051,-0.0010689827613532543,0.0008399150101467967
1729696937336625700,0.818625732421875,0.00007635590736754239,-0.0004581354442052543,-0.0009926267666742206
1729696937346395000,0.828394775390625,0.0019088976550847292,0.0007635590736754239,-0.00038177953683771193
1729696937356164000,0.8381640625,0.000687203137204051,-0.0010689827613532543,0.00022906772210262716
1729696937365933300,0.847933349609375,0.000687203137204051,-0.0016798300202935934,0.0008399150101467967
1729696937375702500,0.85770263671875,0.000687203137204051,-0.0010689827613532543,-0.00038177953683771193
1729696937385472000,0.867471923828125,0.00007635590736754239,0.0007635590736754239,0.0008399150101467967
1729696937395241200,0.8772412109375,0.000687203137204051,0.00015271181473508477,0.00022906772210262716
1729696937405010400,0.887010498046875,0.000687203137204051,-0.0029015245381742716,-0.00038177953683771193
1729696937414779600,0.896779541015625,0.00129805039614439,-0.0016798300202935934,-0.00038177953683771193
1729696937424548900,0.906548828125,0.00129805039614439,-0.0004581354442052543,0.00022906772210262716
1729696937434318000,0.916318115234375,0.000687203137204051,0.0007635590736754239,0.00022906772210262716
1729696937444087300,0.92608740234375,0.00007635590736754239,0.0007635590736754239,0.00022906772210262716
1729696937453856500,0.9358564453125,0.00007635590736754239,0.0007635590736754239,0.0008399150101467967
1729696937463625700,0.945625732421875,0.00007635590736754239,0.00015271181473508477,0.00022906772210262716
1729696937473395000,0.95539501953125,0.000687203137204051,-0.0016798300202935934,-0.00038177953683771193
1729696937483164200,0.9651640625,0.00129805039614439,-0.0022906772792339325,-0.0009926267666742206
1729696937492933400,0.974933349609375,0.000687203137204051,-0.0010689827613532543,-0.00038177953683771193
1729696937502702600,0.98470263671875,0.00007635590736754239,0.0007635590736754239,0.0008399150101467967
1729696937512471800,0.994471923828125,0.00007635590736754239,0.001374406274408102,0.00022906772210262716
1729696937522241000,1.004240966796875,0.000687203137204051,0.00015271181473508477,0.00022906772210262716
1729696937532010500,1.014010498046875,0.000687203137204051,-0.0016798300202935934,-0.00038177953683771193
1729696937541779700,1.02377978515625,0.000687203137204051,-0.0010689827613532543,0.00022906772210262716
1729696937551549000,1.033548828125,0.00007635590736754239,0.00015271181473508477,0.00022906772210262716
1729696937561318100,1.043318115234375,0.000687203137204051,0.0007635590736754239,0.0008399150101467967
1729696937571087400,1.05308740234375,-0.0005344913806766272,0.001374406274408102,-0.00038177953683771193
1729696937580856600,1.062856689453125,0.00007635590736754239,-0.0010689827613532543,-0.00038177953683771193
1729696937590625800,1.072625732421875,-0.0005344913806766272,-0.0035123717971146107,-0.0009926267666742206
1729696937600395000,1.08239501953125,0.00007635590736754239,-0.0022906772792339325,-0.00038177953683771193
1729696937610164200,1.092164306640625,0.00007635590736754239,-0.0004581354442052543,0.00022906772210262716
1729696937619933400,1.101933349609375,0.000687203137204051,0.001374406274408102,0.0008399150101467967
1729696937629702700,1.11170263671875,0.000687203137204051,0.001374406274408102,0.00022906772210262716
1729696937639471900,1.121471923828125,0.000687203137204051,-0.0016798300202935934,-0.00038177953683771193
1729696937649241000,1.131240966796875,0.000687203137204051,-0.004734066314995289,-0.00038177953683771193
1729696937659010300,1.14101025390625,0.00129805039614439,-0.0035123717971146107,-0.00038177953683771193
1729696937668779500,1.150779541015625,0.00129805039614439,0.0007635590736754239,-0.00038177953683771193
1729696937678548700,1.160548828125,0.000687203137204051,0.0038177953101694584,0.002061609411612153
1729696937688318200,1.170318115234375,0.000687203137204051,0.005650337319821119,0.0014507622690871358
1729696937698087400,1.18008740234375,0.000687203137204051,0.00259610079228878,0.0008399150101467967
1729696937707856600,1.189856689453125,0.000687203137204051,-0.0010689827613532543,-0.00038177953683771193
1729696937717625900,1.1996259765625,0.000687203137204051,-0.004123218823224306,-0.0009926267666742206
1729696937727395000,1.20939501953125,0.00007635590736754239,-0.0035123717971146107,-0.00038177953683771193
1729696937737164300,1.219164306640625,0.000687203137204051,0.00259610079228878,0.00022906772210262716
1729696937746933500,1.22893359375,0.000687203137204051,0.007482878863811493,0.002061609411612153
1729696937756702700,1.23870263671875,0.00007635590736754239,0.005650337319821119,0.002061609411612153
1729696937766472000,1.248471923828125,0.000687203137204051,0.0007635590736754239,0.00022906772210262716
1729696937776241200,1.2582412109375,0.000687203137204051,-0.004734066314995289,-0.00038177953683771193
1729696937786010400,1.26801025390625,0.00007635590736754239,-0.007177455350756645,-0.0016034740256145597
1729696937795779600,1.277779541015625,0.000687203137204051,-0.0035123717971146107,-0.0009926267666742206
1729696937805548800,1.287548828125,0.000687203137204051,0.0038177953101694584,0.0014507622690871358
1729696937815318000,1.297318115234375,0.00129805039614439,0.008704573847353458,0.002061609411612153
1729696937825087200,1.307087158203125,0.000687203137204051,0.0038177953101694584,0.0014507622690871358
1729696937834856400,1.3168564453125,-0.0005344913806766272,-0.005955760832875967,-0.0009926267666742206
1729696937844626000,1.3266259765625,0.00007635590736754239,-0.011453386396169662,-0.0034360159188508987
1729696937854395100,1.33639501953125,0.00007635590736754239,-0.008399149402976036,-0.0022143214009702206
1729696937864164400,1.346164306640625,0.00007635590736754239,0.0032069480512291193,0.0014507622690871358
1729696937873933600,1.35593359375,-0.0011453386396169662,0.012980503961443901,0.004504998680204153
1729696937883702800,1.365702880859375,0.000687203137204051,0.00992626789957285,0.0038941511884331703
1729696937893472000,1.375471923828125,0.000687203137204051,-0.0022906772792339325,-0.00038177953683771193
1729696937903241200,1.3852412109375,0.00007635590736754239,-0.013896775431931019,-0.004046862944960594
1729696937913010400,1.395010498046875,0.00007635590736754239,-0.013285927474498749,-0.004046862944960594
1729696937922779600,1.404779541015625,0.00007635590736754239,0.0007635590736754239,0.0008399150101467967
1729696937932548900,1.414548828125,0.000687203137204051,0.014813045971095562,0.004504998680204153
1729696937942318000,1.424318115234375,0.000687203137204051,0.012980503961443901,0.0038941511884331703
1729696937952087300,1.43408740234375,-0.0005344913806766272,0.00015271181473508477,0.00022906772210262716
1729696937961856500,1.4438564453125,-0.0005344913806766272,-0.010842538438737392,-0.0028251686599105597
1729696937971625700,1.453625732421875,-0.0005344913806766272,-0.011453386396169662,-0.0028251686599105597
1729696937981395000,1.46339501953125,0.00007635590736754239,-0.0010689827613532543,-0.00038177953683771193
1729696937991164200,1.4731640625,0.00007635590736754239,0.009315420873463154,0.002061609411612153
1729696938000933400,1.482933349609375,0.00007635590736754239,0.009315420873463154,0.002672456670552492
1729696938010702800,1.492702880859375,0.00007635590736754239,-0.0010689827613532543,0.00022906772210262716
1729696938020472000,1.50247216796875,-0.0005344913806766272,-0.009620844386518002,-0.0034360159188508987
1729696938030241300,1.5122412109375,0.00007635590736754239,-0.008399149402976036,-0.0034360159188508987
1729696938040010500,1.522010498046875,0.000687203137204051,0.00259610079228878,0.0008399150101467967
1729696938049779700,1.53177978515625,0.000687203137204051,0.012369656935334206,0.0032833039294928312
1729696938059549000,1.541548828125,0.000687203137204051,0.055739812552928925,0.008780929259955883
1729696938069318100,1.551318115234375,0.00007635590736754239,0.10216420143842697,0.013667707331478596
1729696938079087400,1.56108740234375,0.00007635590736754239,0.0050394898280501366,-0.005879404954612255
1729696938088856600,1.570856689453125,-0.0005344913806766272,0.008704573847353458,-0.005879404954612255
1729696938098625800,1.580625732421875,-0.0005344913806766272,0.0068720318377017975,-0.008322793990373611
1729696938108395000,1.59039501953125,-0.0005344913806766272,0.006261184345930815,-0.008322793990373611
1729696938118164200,1.600164306640625,-0.0005344913806766272,0.0068720318377017975,-0.0034360159188508987
1729696938127933400,1.609933349609375,0.00007635590736754239,0.0038177953101694584,-0.005268557462841272
1729696938137702700,1.61970263671875,0.000687203137204051,0.001374406274408102,0.0014507622690871358
1729696938147472000,1.629471923828125,0.00007635590736754239,-0.009009997360408306,0.0014507622690871358
1729696938157241000,1.639240966796875,-0.0005344913806766272,-0.0261137206107378,-0.004657710436731577
1729696938167010300,1.64901025390625,0.00007635590736754239,-0.004734066314995289,-0.0034360159188508987
1729696938176779800,1.65877978515625,0.00007635590736754239,-0.0004581354442052543,-0.00038177953683771193
1729696938186549000,1.668549072265625,0.00007635590736754239,-0.0016798300202935934,0.0038941511884331703
1729696938196318200,1.678318115234375,0.000687203137204051,0.001985253533348441,0.03504735976457596
1729696938206087400,1.68808740234375,0.014736690558493137,-0.01572931744158268,0.05215108394622803
1729696938215856600,1.697856689453125,0.1546207070350647,-0.10918894410133362,0.020997874438762665
1729696938225625900,1.7076259765625,0.3647521734237671,-0.21677441895008087,-0.08528954535722733
1729696938235395000,1.71739501953125,0.5174639821052551,-0.3163425326347351,-0.3351260721683502
1729696938245164300,1.727164306640625,0.5712185502052307,-0.4195757210254669,-0.6180247068405151
1729696938254933500,1.73693359375,0.4911975562572479,-0.46966519951820374,-0.8098307251930237
1729696938264702700,1.74670263671875,0.28106608986854553,-0.48249298334121704,-0.8513683676719666
1729696938274472000,1.756471923828125,0.07704310864210129,-0.5637356638908386,-0.8189934492111206
1729696938284241200,1.7662412109375,0.006184828467667103,-0.7298861145973206,-0.8269344568252563
1729696938294010400,1.77601025390625,0.06116108223795891,-0.9803335070610046,-0.9295567870140076
1729696938303779600,1.785779541015625,0.1937149316072464,-1.1788588762283325,-1.1030374765396118
1729696938313548800,1.795548828125,0.3232145607471466,-1.2649883031845093,-1.320499062538147
1729696938323318000,1.805318115234375,0.38002336025238037,-1.4659570455551147,-1.5825525522232056
1729696938333087500,1.81508740234375,0.36963894963264465,-1.7829867601394653,-1.823837161064148
1729696938342856700,1.824856689453125,0.38613182306289673,-2.07558274269104,-1.9863225221633911
1729696938352626000,1.8346259765625,0.47287213802337646,-2.2789947986602783,-1.9930418729782104
1729696938362395100,1.84439501953125,0.5773270130157471,-2.3987207412719727,-1.797570824623108
1729696938372164400,1.854164306640625,0.5229616165161133,-2.440258502960205,-1.3870813846588135
1729696938381933600,1.86393359375,0.3470376133918762,-2.6418380737304688,-0.9197832345962524
1729696938391702800,1.873702880859375,0.20959696173667908,-2.898470163345337,-0.5496098399162292
1729696938401472000,1.883471923828125,0.11552648991346359,-2.900913715362549,-0.28137150406837463
1729696938411241200,1.8932412109375,0.02023431472480297,-2.6723804473876953,-0.08467870205640793
1729696938421010400,1.903010498046875,-0.08788564801216125,-2.443312644958496,0.08391514420509338
1729696938430779600,1.912779541015625,-0.16301986575126648,-2.1861460208892822,0.17859646677970886
1729696938440548900,1.922548828125,-0.20700086653232574,-1.708463430404663,0.06742226332426071
1729696938450318000,1.932318115234375,-0.31084489822387695,-1.3615021705627441,-0.10728005319833755
1729696938460087300,1.94208740234375,-0.41285640001296997,-0.7659261226654053,-0.285647451877594
1729696938469856500,1.9518564453125,-0.5203655362129211,-0.08964183181524277,-0.2722088098526001
1729696938479626000,1.9616259765625,-0.5472427606582642,0.44423866271972656,-0.08345700800418854
1729696938489395200,1.971395263671875,-0.39025503396987915,0.798530101776123,0.05948125198483467
1729696938499164400,1.981164306640625,-0.18012358248233795,1.0447015762329102,0.06497887521982193
1729696938508933600,1.99093359375,-0.031076854094862938,1.1595407724380493,-0.04802786558866501
1729696938518702800,2.000702880859375,0.10575293004512787,1.071578860282898,-0.14698512852191925
1729696938528472000,2.01047216796875,0.27984440326690674,0.7032378911972046,-0.11033428460359573
1729696938538241300,2.0202412109375,0.46004435420036316,0.3067980408668518,0.04787515476346016
1729696938548010500,2.030010498046875,0.6304707527160645,-0.014507622458040714,0.18226155638694763
1729696938557779700,2.03977978515625,0.8460997939109802,-0.3945309817790985,0.24640052020549774
1729696938567549000,2.049548828125,1.0953254699707031,-0.7439355850219727,0.2769428789615631
1729696938577318100,2.059318115234375,1.3195064067840576,-1.093340277671814,0.28305134177207947
1729696938587087400,2.06908740234375,1.49848473072052,-1.439079761505127,0.26900187134742737
1729696938596856600,2.078856689453125,1.6102697849273682,-1.7176260948181152,0.2543415129184723
1729696938606625800,2.088625732421875,1.659137487411499,-1.8911067247390747,0.26106083393096924
1729696938616395000,2.09839501953125,1.644477128982544,-1.9271467924118042,0.29954421520233154
1729696938626164500,2.10816455078125,1.5510175228118896,-1.8251352310180664,0.3581855595111847
1729696938635933700,2.11793359375,1.4343457221984863,-1.61133873462677,0.3997231721878052
1729696938645703000,2.127702880859375,1.3127870559692383,-1.3413442373275757,0.4119401276111603
1729696938655472000,2.13747216796875,1.1252570152282715,-1.0774582624435425,0.34902286529541016
1729696938665241300,2.147241455078125,0.8308286070823669,-0.8508338928222656,0.19631104171276093
1729696938675010600,2.157010498046875,0.48569992184638977,-0.6877376437187195,-0.010766183026134968
1729696938684779800,2.16677978515625,0.15828579664230347,-0.565568208694458,-0.2062373012304306
1729696938694549000,2.176549072265625,-0.03596363216638565,-0.40186113119125366,-0.3094705045223236
1729696938704318200,2.186318115234375,-0.09704835712909698,-0.19172967970371246,-0.2887016832828522
1729696938714087400,2.19608740234375,-0.1214822456240654,0.02092151902616024,-0.1689756214618683
1729696938723856600,2.205856689453125,-0.1459161341190338,0.15408621728420258,-0.02298312820494175
1729696938733625900,2.2156259765625,-0.1483595222234726,0.17424418032169342,0.06375718116760254
1729696938743395000,2.22539501953125,-0.11842801421880722,0.21822518110275269,0.06131379306316376
1729696938753164300,2.235164306640625,-0.06467345356941223,0.39231663942337036,-0.05169294774532318
1729696938762933800,2.244933837890625,-0.030466007068753242,0.5633538961410522,-0.24899661540985107
1729696938772703000,2.254702880859375,0.007406522985547781,0.5792359113693237,-0.42369893193244934
1729696938782472200,2.26447216796875,0.08498412370681763,0.6024481058120728,-0.48967042565345764
1729696938792241400,2.274241455078125,0.14912308752536774,0.6055023670196533,-0.4047626554965973
1729696938802010600,2.2840107421875,0.194325789809227,0.5890094637870789,-0.22211933135986328
1729696938811779800,2.29377978515625,0.31771692633628845,0.5871769189834595,-0.029091600328683853
1729696938821549000,2.303549072265625,0.4117874205112457,0.6116108298301697,0.0955212414264679
1729696938831318300,2.313318359375,0.3745257258415222,0.5474718809127808,0.0942995473742485
1729696938841087500,2.32308740234375,0.21692712604999542,0.4515688419342041,-0.035200074315071106
1729696938850856700,2.332856689453125,0.028786176815629005,0.4411844313144684,-0.2569376230239868
1729696938860626000,2.3426259765625,-0.10071343928575516,0.5334223508834839,-0.48661619424819946
1729696938870395100,2.35239501953125,-0.15813308954238892,0.724006712436676,-0.6045860648155212
1729696938880164400,2.362164306640625,-0.24487338960170746,0.983005940914154,-0.5746545791625977
1729696938889933600,2.37193359375,-0.37681639194488525,1.2731584310531616,-0.4255314767360687
1729696938899703000,2.381703125,-0.45500484108924866,1.3983820676803589,-0.2337254285812378
1729696938909472300,2.39147216796875,-0.3603235185146332,1.3134742975234985,-0.05047125369310379
1729696938919241500,2.401241455078125,-0.23509983718395233,1.2102410793304443,0.08391514420509338
1729696938929010700,2.4110107421875,-0.14897038042545319,0.9952229261398315,0.1865374743938446
1729696938938780000,2.42077978515625,-0.07017108052968979,0.5639647245407104,0.2561740577220917
1729696938948549000,2.430549072265625,-0.0029778804164379835,0.2414373755455017,0.28732728958129883
1729696938958318300,2.440318359375,-0.0035887276753783226,0.14675605297088623,0.31176117062568665
1729696938968087600,2.450087646484375,-0.030466007068753242,0.1247655525803566,0.3416926860809326
1729696938977856800,2.459856689453125,-0.028633465990424156,0.150421142578125,0.4119401276111603
1729696938987626000,2.4696259765625,-0.09155073016881943,0.2585411071777344,0.5542675256729126
1729696938997395200,2.479395263671875,-0.1617981642484665,0.3495573401451111,0.7747833728790283
1729696939007164400,2.489164306640625,-0.23326729238033295,0.3898732662200928,1.0014077425003052
1729696939016933600,2.49893359375,-0.42751672863960266,0.4161396920681,1.2286429405212402
1729696939026703000,2.508703125,-0.7488987445831299,0.3110739588737488,1.4613757133483887
1729696939036472300,2.518472412109375,-0.9608627557754517,0.07406523078680038,1.6220285892486572
1729696939046241500,2.528241455078125,-0.9260444641113281,-0.20333577692508698,1.6855566501617432
1729696939056010800,2.5380107421875,-0.7794411182403564,-0.3975852131843567,1.7093796730041504
1729696939065780000,2.547780029296875,-0.6516976952552795,-0.574120044708252,1.7246508598327637
1729696939075549200,2.557549072265625,-0.5851153135299683,-0.7842515110969543,1.6702854633331299
1729696939085318400,2.567318359375,-0.5325824618339539,-0.963229775428772,1.6128658056259155
1729696939095087600,2.577087646484375,-0.5087594389915466,-1.0817341804504395,1.6208068132400513
1729696939104856800,2.58685693359375,-0.5521295666694641,-1.087842583656311,1.684945821762085
1729696939114626000,2.5966259765625,-0.684148907661438,-1.1043355464935303,1.7619125843048096
1729696939124395300,2.606395263671875,-0.8753440976142883,-1.1684744358062744,1.8040610551834106
1729696939134164500,2.61616455078125,-0.9584193229675293,-1.1580899953842163,1.8480420112609863
1729696939143933700,2.62593359375,-1.0427162647247314,-1.087842583656311,1.8944664001464844
1729696939153703000,2.635702880859375,-1.2027583122253418,-1.0872317552566528,1.9213436841964722
1729696939163472100,2.64547216796875,-1.3041589260101318,-1.116552472114563,1.8761409521102905
1729696939173241600,2.65524169921875,-1.3469182252883911,-1.0212602615356445,1.7509173154830933
1729696939183010800,2.6650107421875,-1.411668062210083,-0.9015341997146606,1.63424551486969
1729696939192780000,2.674780029296875,-1.494132399559021,-0.8410603404045105,1.5475051403045654
1729696939202549200,2.68454931640625,-1.5350592136383057,-0.828843355178833,1.430833339691162
1729696939212318500,2.694318359375,-1.5228421688079834,-0.79707932472229,1.249411702156067
1729696939222087700,2.704087646484375,-1.4874130487442017,-0.7304969429969788,1.019733190536499
1729696939231857000,2.71385693359375,-1.4361019134521484,-0.6846834421157837,0.8022715449333191
1729696939241626000,2.723626220703125,-1.3670761585235596,-0.6626929044723511,0.6556681990623474
1729696939251395300,2.733395263671875,-1.3059914112091064,-0.667579710483551,0.5823665261268616
1729696939261164500,2.74316455078125,-1.2840009927749634,-0.5942780375480652,0.5438831448554993
1729696939270933800,2.752933837890625,-1.3011046648025513,-0.3957526683807373,0.5206709504127502
1729696939280703000,2.762702880859375,-1.2980504035949707,-0.20272493362426758,0.4992912709712982
1729696939290472400,2.772472412109375,-1.248571753501892,-0.10246963053941727,0.46691638231277466
1729696939300241700,2.78224169921875,-1.1764918565750122,-0.020616095513105392,0.4253787696361542
1729696939310011000,2.792010986328125,-1.0891406536102295,0.04352286830544472,0.36185064911842346
1729696939319780000,2.801780029296875,-0.9730796813964844,0.06123743951320648,0.290381520986557
1729696939329549300,2.81154931640625,-0.8515210747718811,0.02641914412379265,0.22807510197162628
1729696939339318500,2.821318603515625,-0.7513421177864075,-0.028557108715176582,0.19203510880470276
1729696939349087700,2.831087646484375,-0.6694886088371277,-0.10796725004911423,0.17554223537445068
1729696939358857000,2.84085693359375,-0.6138251423835754,-0.18073442578315735,0.17737478017807007
1729696939368626200,2.850626220703125,-0.5954996943473816,-0.19050799310207367,0.19325679540634155
1729696939378395400,2.8603955078125,-0.5790068507194519,-0.15439164638519287,0.2256316989660263
1729696939388164600,2.87016455078125,-0.569844126701355,-0.17951273918151855,0.26045000553131104
1729696939397934000,2.87993408203125,-0.5692332983016968,-0.20211409032344818,0.2885489761829376
1729696939407703300,2.889703369140625,-0.5625139474868774,-0.13240113854408264,0.2928248941898346
1729696939417472500,2.899472412109375,-0.5582380294799805,-0.009620844386518002,0.2885489761829376
1729696939427241700,2.90924169921875,-0.5460211038589478,0.03008422814309597,0.29893338680267334
1729696939437011000,2.919010986328125,-0.5283065438270569,0.008704573847353458,0.31115031242370605
1729696939446780200,2.9287802734375,-0.5038726329803467,-0.0029015245381742716,0.29648998379707336
1729696939456549400,2.93854931640625,-0.4721085727214813,-0.004123218823224306,0.26167169213294983
1729696939466318600,2.948318603515625,-0.44339874386787415,0.01725643500685692,0.23357272148132324
1729696939476087800,2.958087890625,-0.382924884557724,0.0594048947095871,0.20669543743133545
1729696939485857000,2.96785693359375,-0.3157316744327545,0.10277505218982697,0.16760121285915375
1729696939495626200,2.977626220703125,-0.24243000149726868,0.1882936656475067,0.11690089106559753
1729696939505395700,2.987395751953125,-0.18256697058677673,0.26464956998825073,0.056427016854286194
1729696939515165000,2.9971650390625,-0.15446799993515015,0.3086305856704712,0.0051158457063138485
1729696939524934100,3.00693408203125,-0.1330883502960205,0.35566580295562744,-0.02298312820494175
1729696939534703400,3.016703369140625,-0.13858596980571747,0.3984251320362091,-0.007711946498602629
1729696939544472600,3.02647265625,-0.13919681310653687,0.4027010500431061,0.03749075159430504
1729696939554241800,3.03624169921875,-0.15507884323596954,0.3434488773345947,0.08086090534925461
1729696939564011000,3.046010986328125,-0.1727934181690216,0.26159533858299255,0.12423106282949448
1729696939573780200,3.0557802734375,-0.16485241055488586,0.1656923145055771,0.1602710485458374
1729696939583549400,3.065549560546875,-0.11598462611436844,0.06856760382652283,0.18165069818496704
1729696939593318700,3.075318603515625,-0.05978667363524437,-0.010842538438737392,0.19142426550388336
1729696939603088000,3.085087890625,-0.03290939703583717,-0.03161134570837021,0.18103985488414764
1729696939612857000,3.094857177734375,-0.03840702027082443,-0.007788302376866341,0.15538427233695984
1729696939622626300,3.104626220703125,-0.06772769242525101,0.06123743951320648,0.1333937644958496
1729696939632395800,3.114395751953125,-0.10682191699743271,0.2029540091753006,0.1217876747250557
1729696939642165000,3.1241650390625,-0.14408360421657562,0.4100312292575836,0.11140327155590057
1729696939651934200,3.133934326171875,-0.17829103767871857,0.5792359113693237,0.06742226332426071
1729696939661703400,3.143703369140625,-0.22349373996257782,0.6824691295623779,-0.01748550310730934
1729696939671472600,3.15347265625,-0.27358320355415344,0.8034168481826782,-0.1023932695388794
1729696939681241900,3.163241943359375,-0.2943520247936249,0.9439117312431335,-0.15981291234493256
1729696939691011000,3.173010986328125,-0.25953373312950134,1.053253412246704,-0.19707459211349487
1729696939700780300,3.1827802734375,-0.18256697058677673,1.1461021900177002,-0.21112407743930817
1729696939710549500,3.192549560546875,-0.07994463294744492,1.2957597970962524,-0.21417832374572754
1729696939720318700,3.202318603515625,0.05444176122546196,1.5901881456375122,-0.26732203364372253
1729696939730088200,3.212088134765625,0.17600037157535553,2.0446584224700928,-0.41942301392555237
1729696939739857400,3.221857421875,0.18638476729393005,2.57922625541687,-0.7249229550361633
1729696939749626600,3.231626708984375,0.07948649674654007,3.307356119155884,-1.261246919631958
1729696939759395800,3.241395751953125,-0.04695888236165047,4.122226238250732,-2.138423442840576
1729696939769165000,3.2511650390625,-0.2528144121170044,4.464300632476807,-2.8488388061523438
1729696939778934300,3.260934326171875,-0.3737621605396271,4.968860626220703,-3.5092411041259766
1729696939788703500,3.270703369140625,-0.4653892517089844,5.573675632476807,-4.135359764099121
1729696939798472700,3.28047265625,-0.6034407615661621,6.090452671051025,-4.768808364868164
1729696939808242000,3.290241943359375,-0.8008207678794861,6.447187423706055,-5.392483234405518
1729696939818011100,3.30001123046875,-0.9578084945678711,6.701910495758057,-5.9062819480896
1729696939827780600,3.309780517578125,-1.0152281522750854,6.978013515472412,-6.181774139404297
1729696939837549800,3.3195498046875,-0.9675820469856262,7.168598175048828,-6.251410961151123
1729696939847319000,3.329319091796875,-0.80937260389328,7.090409755706787,-6.124965667724609
1729696939857088300,3.339088134765625,-0.6022190451622009,6.797203063964844,-5.790144920349121
1729696939866857500,3.348857421875,-0.44523128867149353,6.454517364501953,-5.321013927459717
1729696939876626700,3.358626708984375,-0.42812758684158325,6.1167192459106445,-4.863489627838135
1729696939886396000,3.36839599609375,-0.5551838278770447,5.76853609085083,-4.550124645233154
1729696939896165000,3.3781650390625,-0.8130376935005188,5.4716644287109375,-4.402299880981445
1729696939905934300,3.387934326171875,-1.2149752378463745,5.193118095397949,-4.373589992523193
1729696939915703600,3.39770361328125,-1.6450116634368896,4.847301959991455,-4.376033306121826
1729696939925472800,3.40747265625,-1.9394400119781494,4.438645362854004,-4.318002700805664
1729696939935242000,3.417241943359375,-2.0695505142211914,4.0208258628845215,-4.1830058097839355
1729696939945011500,3.427011474609375,-2.0726046562194824,3.6243858337402344,-4.023574352264404
1729696939954780700,3.43678076171875,-2.001746416091919,3.2658185958862305,-3.881247043609619
1729696939964550000,3.4465498046875,-1.8795770406723022,3.0410268306732178,-3.7731270790100098
1729696939974319000,3.456319091796875,-1.7512991428375244,3.0233120918273926,-3.706544876098633
1729696939984088300,3.46608837890625,-1.673721432685852,3.134486436843872,-3.669283151626587
1729696939993857500,3.475857421875,-1.6535634994506836,3.27253794670105,-3.6020898818969727
1729696940003626800,3.485626708984375,-1.6248537302017212,3.3348443508148193,-3.4628167152404785
1729696940013396000,3.49539599609375,-1.5094035863876343,3.160752773284912,-3.25635027885437
1729696940023165200,3.505165283203125,-1.2406307458877563,2.6641340255737305,-3.0186543464660645
1729696940032934700,3.5149345703125,-0.80937260389328,1.9560856819152832,-2.7614877223968506
1729696940042704000,3.524703857421875,-0.2882435619831085,1.3354648351669312,-2.502488613128662
1729696940052473000,3.53447314453125,0.21265120804309845,1.0422581434249878,-2.264868974685669
1729696940062242300,3.5442421875,0.5883222818374634,1.1656492948532104,-2.0529048442840576
1729696940072011500,3.554011474609375,0.8210550546646118,1.592631459236145,-1.8372758626937866
1729696940081780700,3.56378076171875,0.9713234901428223,2.091693639755249,-1.583774209022522
1729696940091550000,3.573550048828125,1.1130400896072388,2.473473310470581,-1.2765181064605713
1729696940101319200,3.583319091796875,1.257200002670288,2.7691996097564697,-0.7768449783325195
1729696940111088400,3.59308837890625,1.1435824632644653,4.412378787994385,1.1773316860198975
1729696940120857600,3.602857666015625,0.8858048915863037,5.1172966957092285,2.554868698120117
1729696940130626800,3.612626708984375,0.9688801169395447,3.8161919116973877,1.9091267585754395
1729696940140396300,3.622396240234375,1.4746615886688232,2.6928436756134033,1.1089168787002563
1729696940150165500,3.63216552734375,2.001899242401123,1.7196877002716064,0.810823380947113
1729696940159934700,3.641934814453125,2.079476833343506,1.0544750690460205,0.9110023379325867
1729696940169704000,3.651703857421875,1.9346296787261963,0.8541171550750732,1.013624668121338
1729696940179473200,3.66147314453125,1.6988425254821777,0.7936432957649231,0.9543724656105042
1729696940189242400,3.671242431640625,1.5045931339263916,0.755770742893219,0.9152782559394836
1729696940199011600,3.681011474609375,1.400138258934021,0.6629219651222229,0.8346464037895203
1729696940208780800,3.69078076171875,1.2938508987426758,0.43324342370033264,0.5353312492370605
1729696940218550000,3.700550048828125,1.1313655376434326,0.12293300777673721,0.1730988472700119
1729696940228319500,3.710319580078125,0.9688801169395447,-0.22105035185813904,-0.1286597102880478
1729696940238088700,3.720088623046875,0.956663191318512,-0.4531722962856293,-0.3235199749469757
1729696940247858000,3.72985791015625,0.9059628248214722,-0.3279486298561096,-0.4817294180393219
1729696940257627100,3.739627197265625,0.7813500165939331,0.44607120752334595,-0.557550847530365
1729696940267396400,3.749396240234375,0.5577799081802368,1.2169604301452637,-0.33329352736473083
1729696940277165600,3.75916552734375,0.3513135313987732,0.8840487003326416,0.03626905754208565
1729696940286934800,3.768934814453125,0.2969481348991394,-0.07009471952915192,0.12972868978977203
1729696940296704000,3.7787041015625,0.44599485397338867,-0.8416711688041687,-0.09811734408140182
1729696940306473200,3.78847314453125,0.6023717522621155,-1.301639199256897,-0.34612134099006653
1729696940316242700,3.79824267578125,0.7294279932975769,-1.583850622177124,-0.5293754935264587
1729696940326012000,3.808011962890625,0.6732300519943237,-1.6583739519119263,-0.7230904698371887
1729696940335781000,3.817781005859375,0.4282802939414978,-1.7616071701049805,-0.746913492679596
1729696940345550300,3.82755029296875,0.055052608251571655,-1.9894531965255737,-0.4921138286590576
1729696940355319600,3.837319580078125,-0.11903885751962662,-2.6155714988708496,-0.03336753323674202
1729696940365088800,3.8470888671875,-0.12270393967628479,-2.813486099243164,0.28671643137931824
1729696940374858000,3.85685791015625,-0.20822255313396454,-2.7200264930725098,0.2537306845188141
1729696940384627200,3.866627197265625,-0.278469979763031,-2.8343312740325928,0.2525089979171753
1729696940394396400,3.876396484375,-0.40125030279159546,-2.4653031826019287,0.30870693922042847
1729696940404165600,3.88616552734375,-0.357269287109375,-2.041375160217285,0.445536732673645
1729696940413935000,3.89593505859375,-0.2613662779331207,-1.6901379823684692,0.741186797618866
1729696940423704300,3.905704345703125,-0.20455747842788696,-1.2680425643920898,1.166947364807129
1729696940433473500,3.9154736328125,-0.1361425817012787,-0.8654941916465759,1.514519453048706
1729696940443242800,3.92524267578125,-0.03229855000972748,-0.597943127155304,1.648905873298645
1729696940453012000,3.935011962890625,0.10392039269208908,-0.3719296157360077,1.565219759941101
1729696940462781200,3.94478125,0.1924932450056076,-0.41835400462150574,1.3892956972122192
1729696940472550400,3.95455029296875,0.24197186529636383,-0.7720345854759216,1.295836091041565
1729696940482319600,3.964319580078125,0.3085542321205139,-0.9296332001686096,1.3257676362991333
1729696940492089000,3.974089111328125,0.39468368887901306,-0.6816291809082031,1.402734398841858
1729696940501858300,3.9838583984375,0.46126604080200195,-0.40063944458961487,1.533455729484558
1729696940511627500,3.99362744140625,0.4307236671447754,-0.33833301067352295,1.7661885023117065
1729696940521396700,4.003396728515625,0.30733251571655273,-0.4977641701698303,2.0227444171905518
1729696940531166000,4.013166015625,0.09292513877153397,-0.856942355632782,2.17797589302063
1729696940540935200,4.02293505859375,-0.12881241738796234,-1.2979741096496582,2.1969120502471924
1729696940550704400,4.032704345703125,-0.36154523491859436,-1.866062045097351,2.115593194961548
1729696940560473600,4.0424736328125,-0.639480710029602,-2.3956665992736816,2.0300745964050293
1729696940570242800,4.052242919921875,-0.8887827396392822,-2.5948028564453125,2.017246723175049
1729696940580012000,4.062011962890625,-0.943759024143219,-2.3742868900299072,1.9763199090957642
1729696940589781500,4.071781494140625,-0.6859814524650574,-1.2698750495910645,1.6544034481048584
1729696940599550700,4.08155078125,-0.17035003006458282,0.4931064546108246,1.0484429597854614
1729696940609320000,4.09131982421875,0.2596864402294159,1.284153699874878,0.6208499073982239
1729696940619089200,4.101089111328125,0.4710395932197571,1.1754227876663208,0.4217136800289154
1729696940628858400,4.1108583984375,0.5968741178512573,0.8150229454040527,0.3184804916381836
1729696940638627600,4.120627685546875,0.660402238368988,0.42163732647895813,0.2549523711204529
1729696940648396800,4.130396728515625,0.5681642889976501,0.18768282234668732,0.18165069818496704
1729696940658166000,4.140166015625,0.3671955466270447,0.14186927676200867,0.09307785332202911
1729696940667935500,4.149935546875,0.17355698347091675,0.20661908388137817,0.0014507622690871358
1729696940677704700,4.15970458984375,0.005573981441557407,0.22677704691886902,-0.11277767270803452
1729696940687474000,4.169473876953125,-0.22166119515895844,0.17241163551807404,-0.2441098392009735
1729696940697243100,4.1792431640625,-0.5643464922904968,0.05757235363125801,-0.3882697820663452
1729696940707012400,4.189012451171875,-0.9639169573783875,-0.08292251825332642,-0.5416688323020935
1729696940716781600,4.198781494140625,-1.2876659631729126,-0.13056860864162445,-0.6247440576553345
1729696940726550800,4.20855078125,-1.5094035863876343,0.03374931216239929,-0.6620057225227356
1729696940736320000,4.218320068359375,-1.6572285890579224,0.3379512429237366,-0.7224795818328857
1729696940746089200,4.228089111328125,-1.8044427633285522,0.6665870547294617,-0.8183826208114624
1729696940755858400,4.2378583984375,-2.010909080505371,0.90909343957901,-0.9387195110321045
1729696940765628000,4.2476279296875,-2.2411985397338867,1.1338852643966675,-1.010799527168274
1729696940775397000,4.257397216796875,-2.4134576320648193,1.4203726053237915,-1.010799527168274
1729696940785166300,4.267166259765625,-2.4635469913482666,1.6311148405075073,-0.9943066239356995
1729696940794935600,4.276935546875,-2.4201767444610596,1.7154117822647095,-0.9564340710639954
1729696940804704800,4.286704833984375,-2.3273279666900635,1.7428998947143555,-0.8751913905143738
1729696940814474000,4.296473876953125,-2.1678969860076904,1.6873128414154053,-0.7438592314720154
1729696940824243200,4.3062431640625,-1.9357749223709106,1.5168864727020264,-0.5673243999481201
1729696940834012400,4.316012451171875,-1.7781764268875122,1.246891975402832,-0.3510081171989441
1729696940843782000,4.325781982421875,-1.7458014488220215,0.9213103652000427,-0.11583191156387329
1729696940853551000,4.335551025390625,-1.7977235317230225,0.6036698222160339,0.10957072675228119
1729696940863320300,4.3453203125,-1.8294875621795654,0.18035265803337097,0.28427302837371826
1729696940873089500,4.355089599609375,-1.7842848300933838,-0.21799612045288086,0.528001070022583
1729696940882858800,4.364858642578125,-1.6859384775161743,-0.5893912315368652,0.8260945677757263
1729696940892628000,4.3746279296875,-1.6657804250717163,-0.5521295666694641,1.0606598854064941
1729696940902397200,4.384397216796875,-1.7940584421157837,-0.1391204595565796,1.2145934104919434
1729696940912166400,4.39416650390625,-1.9730366468429565,0.4778352677822113,1.3202699422836304
1729696940921936000,4.403935791015625,-2.1129207611083984,1.1008994579315186,1.3459255695343018
1729696940931705000,4.413705078125,-2.149571418762207,1.4991718530654907,1.2481900453567505
1729696940941474300,4.423474365234375,-2.067718029022217,1.5352119207382202,1.0209548473358154
1729696940951243500,4.433243408203125,-1.8636950254440308,1.2523895502090454,0.6996491551399231
1729696940961012700,4.4430126953125,-1.3078240156173706,0.8541171550750732,0.3325299620628357
1729696940970782000,4.452781982421875,-0.49532076716423035,0.6720846891403198,-0.12071868777275085
1729696940980551200,4.46255126953125,0.26212984323501587,0.7423321604728699,-0.6009209752082825
1729696940990320400,4.4723203125,0.7269846200942993,1.0764656066894531,-1.0224056243896484
1729696941000089600,4.482089599609375,0.8063947558403015,1.4808465242385864,-1.347987174987793
1729696941009859000,4.491859130859375,0.6640673279762268,1.8540741205215454,-1.5526210069656372
1729696941019628300,4.501628173828125,0.5107446908950806,2.0868070125579834,-1.5685030221939087
1729696941029397500,4.5113974609375,0.42095011472702026,1.954253077507019,-1.3602041006088257
1729696941039166700,4.521166748046875,0.3775799572467804,1.7288504838943481,-1.0608890056610107
1729696941048936000,4.53093603515625,0.2877854108810425,1.3360756635665894,-0.7163711190223694
1729696941058705200,4.540705078125,0.13201937079429626,0.8748859763145447,-0.37238776683807373
1729696941068474400,4.550474365234375,0.018401773646473885,0.5034908652305603,-0.05596888065338135
1729696941078243800,4.560243896484375,0.10392039269208908,0.40758782625198364,0.19325679540634155
1729696941088013000,4.570012939453125,0.2181488275527954,0.43202173709869385,0.320313036441803
1729696941097782300,4.5797822265625,0.30733251571655273,0.5309789776802063,0.39117130637168884
1729696941107551500,4.589551513671875,0.38185590505599976,0.645818293094635,0.44248247146606445
1729696941117320700,4.59932080078125,0.4148416519165039,0.7081246972084045,0.45286688208580017
1729696941127090000,4.60908984375,0.40995487570762634,0.7032378911972046,0.40399911999702454
1729696941136859100,4.618859130859375,0.24136102199554443,0.5865660905838013,0.4620296061038971
1729696941146628400,4.62862841796875,-0.2815242409706116,0.24998924136161804,0.8334247469902039
1729696941156397600,4.6383974609375,-0.3426089584827423,0.4271349310874939,0.5652627944946289
1729696941166167000,4.6481669921875,-0.08727480471134186,0.7569924592971802,-0.16469968855381012
1729696941175936300,4.657936279296875,0.06910209357738495,0.5285356044769287,-0.6119162440299988
1729696941185705500,4.66770556640625,0.2187596708536148,0.23349636793136597,-0.8525900840759277
1729696941195474700,4.677474609375,0.4954734742641449,0.11315945535898209,-0.9026795625686646
1729696941205244000,4.687243896484375,0.7953994870185852,0.6464291214942932,-0.7566870450973511
1729696941215013000,4.69701318359375,0.8045622110366821,1.5700302124023438,-0.5966450572013855
1729696941224782300,4.7067822265625,0.3916294574737549,2.3250374794006348,-0.5331169366836548
1729696941234551600,4.716551513671875,-0.436068594455719,3.125934600830078,-0.6210789680480957
1729696941244321000,4.726321044921875,-1.359745979309082,3.9261443614959717,-0.7401941418647766
1729696941254090200,4.73609033203125,-2.2179863452911377,4.8888397216796875,-0.8568660020828247
1729696941263859500,4.745859375,-2.8471591472625732,5.607883453369141,-0.8709154725074768
1729696941273628700,4.755628662109375,-3.062788248062134,5.370263576507568,-0.4426352083683014
1729696941283398000,4.76539794921875,-2.5356268882751465,2.302436113357544,0.8859575986862183
1729696941293167000,4.7751669921875,-1.7812305688858032,0.6476507782936096,1.5255147218704224
1729696941302936300,4.784936279296875,-1.6450116634368896,1.1851963996887207,1.3367629051208496
1729696941312705500,4.79470556640625,-1.7586292028427124,2.0868070125579834,1.1034191846847534
1729696941322474800,4.804474853515625,-1.7958909273147583,2.651916980743408,1.0252307653427124
1729696941332244200,4.814244140625,-1.7366387844085693,2.7423224449157715,1.0679900646209717
1729696941342013400,4.824013427734375,-1.860029935836792,2.5114221572875977,1.2524659633636475
1729696941351782700,4.83378271484375,-1.8508671522140503,2.1949269771575928,1.3819655179977417
1729696941361552000,4.8435517578125,-1.5454435348510742,1.9927364587783813,1.2946144342422485
1729696941371321000,4.853321044921875,-1.0842539072036743,1.7001405954360962,0.9617026448249817
1729696941381090300,4.86309033203125,-0.6126034259796143,1.22795569896698,0.4913502633571625
1729696941390859500,4.872859619140625,-0.278469979763031,0.8950439691543579,0.15782766044139862
1729696941400629000,4.88262890625,-0.23082390427589417,0.8009734749794006,0.03993413969874382
1729696941410398200,4.892398193359375,-0.4207974076271057,0.7734853625297546,-0.027259059250354767
1729696941420167400,4.90216748046875,-0.6951441764831543,0.73255854845047,-0.22700610756874084
1729696941429936600,4.9119365234375,-0.8435800671577454,0.6708629727363586,-0.6204680800437927
1729696941439705900,4.921705810546875,-0.8667922616004944,0.4888305068016052,-1.1445749998092651
1729696941449475000,4.93147509765625,-0.7024743556976318,0.2041756957769394,-1.514748454093933
1729696941459244300,4.941244384765625,-0.5429668426513672,-0.2644205093383789,-1.654632568359375
1729696941469013500,4.951013427734375,-0.4220190942287445,-0.7805864214897156,-1.7206040620803833
1729696941478782700,4.96078271484375,-0.4354577362537384,-1.0188168287277222,-1.6228684186935425
1729696941488552200,4.97055224609375,-0.4531722962856293,-1.0072107315063477,-1.3125580549240112
1729696941498321400,4.9803212890625,-0.35116082429885864,-0.8312867879867554,-0.7365291118621826
1729696941508090600,4.990090576171875,-0.707361102104187,-0.09269607067108154,0.2751103341579437
1729696941517859800,4.99985986328125,-1.0995250940322876,0.6769714951515198,1.350812315940857
1729696941527629000,5.009629150390625,-1.1734375953674316,1.055696725845337,2.3422937393188477
1729696941537398300,5.019398193359375,-1.2125318050384521,1.4246485233306885,3.1925930976867676
1729696941547167500,5.02916748046875,-1.4642008543014526,1.6427209377288818,3.7252519130706787
1729696941556937000,5.03893701171875,-1.8862963914871216,1.6567704677581787,4.031286716461182
1729696941566706200,5.0487060546875,-2.58327317237854,1.6134003400802612,4.245693683624268
1729696941576475400,5.058475341796875,-3.3762290477752686,1.585301399230957,4.394740581512451
1729696941586244600,5.06824462890625,-3.9278242588043213,1.371504783630371,4.388021469116211
1729696941596013800,5.078013916015625,-4.177660942077637,0.7343910932540894,3.9384377002716064
1729696941605783000,5.087782958984375,-4.076260089874268,-0.6242095232009888,2.0942134857177734
1729696941615552300,5.09755224609375,-3.736018180847168,-1.184967279434204,0.3154262602329254
1729696941625321500,5.107321533203125,-3.2796390056610107,-0.8819870948791504,-0.5018873810768127
1729696941635090700,5.117090576171875,-2.8453264236450195,-0.382924884557724,-0.9338327646255493
1729696941644860200,5.126860107421875,-2.447054147720337,0.03130592033267021,-1.2618577480316162
1729696941654629400,5.13662939453125,-2.2552480697631836,0.3092414140701294,-1.4347275495529175
1729696941664398600,5.146398681640625,-2.2137105464935303,0.462564080953598,-1.482373595237732
1729696941674167800,5.156167724609375,-2.1587343215942383,0.46012070775032043,-1.514748454093933
1729696941683937000,5.16593701171875,-2.0145742893218994,0.3721587061882019,-1.6515783071517944
1729696941693706200,5.175706298828125,-1.9247796535491943,0.22066856920719147,-1.8317781686782837
1729696941703475500,5.185475341796875,-1.851478099822998,-0.020005248486995697,-2.108492136001587
1729696941713245000,5.195244873046875,-1.3560808897018433,-0.3438306450843811,-2.465226888656616
1729696941723014100,5.20501416015625,-0.4000285863876343,-0.6364265084266663,-2.555021286010742
1729696941732783400,5.214783447265625,0.516242265701294,-1.3272947072982788,-2.2526519298553467
1729696941742552600,5.224552490234375,1.0635614395141602,-1.7530553340911865,-1.658908486366272
1729696941752321800,5.23432177734375,1.1173160076141357,-1.6766993999481201,-0.894738495349884
1729696941762091000,5.244091064453125,0.8363262414932251,-1.2234506607055664,-0.1530935913324356
1729696941771860200,5.253860107421875,0.48936501145362854,-0.6895701885223389,0.3569638729095459
1729696941781629400,5.26362939453125,0.1808871477842331,-0.2405974566936493,0.5848098993301392
1729696941791398700,5.273398681640625,-0.03779617324471474,0.13270656764507294,0.6037461757659912
1729696941801168100,5.283168212890625,-0.11476293206214905,0.41797223687171936,0.5090648531913757
1729696941810937300,5.292937255859375,-0.06100837141275406,0.5853443741798401,0.37956520915031433
1729696941820706600,5.30270654296875,0.07398887723684311,0.6617003083229065,0.24395711719989777
1729696941830475800,5.312475830078125,0.25052374601364136,0.7142331600189209,0.11629004776477814
1729696941840245000,5.322244873046875,0.4655419588088989,0.7930324673652649,-0.0034360159188508987
1729696941850014200,5.33201416015625,0.669564962387085,0.904817521572113,-0.09811734408140182
1729696941859783400,5.341783447265625,0.7734090089797974,1.0404255390167236,-0.14698512852191925
1729696941869553000,5.351552978515625,0.7727981209754944,1.2224581241607666,-0.13537901639938354
1729696941879322000,5.361322021484375,0.6799493432044983,1.4203726053237915,-0.09261971712112427
1729696941889091300,5.37109130859375,0.5009710788726807,1.589577317237854,-0.0364217683672905
1729696941898860500,5.380860595703125,0.2877854108810425,1.7068599462509155,0.06375718116760254
1729696941908629800,5.390629638671875,0.10697462409734726,1.8449114561080933,0.24212458729743958
1729696941918399000,5.40039892578125,-0.1483595222234726,1.2878187894821167,0.3209238648414612
1729696941928168200,5.410168212890625,-0.03596363216638565,2.125901222229004,0.7711182832717896
1729696941937937400,5.4199375,0.1143047958612442,2.4917986392974854,0.9983534812927246
1729696941947706600,5.42970654296875,0.271903395652771,2.137507200241089,0.9830822944641113
1729696941957476000,5.43947607421875,0.45027077198028564,1.5901881456375122,0.81509929895401
1729696941967245300,5.449245361328125,0.6524612307548523,1.0611944198608398,0.5890858173370361
1729696941977014500,5.4590146484375,0.8436564207077026,0.6647545099258423,0.42904382944107056
1729696941986783700,5.46878369140625,0.9413920044898987,0.4796678125858307,0.4369848668575287
1729696941996553000,5.478552978515625,0.9615499377250671,0.4234698712825775,0.6006919145584106
1729696942006322200,5.488322265625,0.9933140277862549,0.44668206572532654,0.8377006649971008
1729696942016091400,5.49809130859375,1.0458468198776245,0.42224815487861633,1.018511414527893
1729696942025860900,5.50786083984375,1.071502447128296,0.3361186981201172,1.1205229759216309
1729696942035630000,5.517630126953125,1.1118183135986328,0.35566580295562744,1.2524659633636475
1729696942045399300,5.5273994140625,1.2144407033920288,0.6409314870834351,1.5450618267059326
1729696942055168500,5.53716845703125,1.3298908472061157,0.9487984776496887,1.8486528396606445
1729696942064937700,5.546937744140625,1.428848147392273,1.025765299797058,1.9531077146530151
1729696942074707000,5.55670703125,1.4844352006912231,0.8913788795471191,1.8578156232833862
1729696942084476200,5.56647607421875,1.4862676858901978,0.6421532034873962,1.6611227989196777
1729696942094245400,5.576245361328125,1.4874894618988037,0.41675055027008057,1.462597370147705
1729696942104014600,5.5860146484375,1.4471734762191772,0.3489464819431305,1.2738455533981323
1729696942113784000,5.5957841796875,1.3787586688995361,0.34100547432899475,1.092423915863037
1729696942123553300,5.60555322265625,1.307900309562683,0.10033166408538818,0.9659785628318787
1729696942133322500,5.615322509765625,1.21077561378479,-0.35238251090049744,0.8902335166931152
1729696942143091700,5.625091796875,1.0434035062789917,-0.8606074452400208,0.7863894701004028
1729696942152861000,5.63486083984375,0.794177770614624,-1.1867998838424683,0.6446729302406311
1729696942162630100,5.644630126953125,0.5547256469726562,-1.0939511060714722,0.5365529656410217
1729696942172399600,5.654399658203125,0.4398863911628723,-0.5863370299339294,0.5316661596298218
1729696942182168800,5.6641689453125,0.48569992184638977,0.07834116369485855,0.5451048016548157
1729696942191938000,5.67393798828125,0.5840463638305664,0.5346440672874451,0.49684789776802063
1729696942201707300,5.683707275390625,0.61397784948349,0.654370129108429,0.38994961977005005
1729696942211476500,5.6934765625,0.5706077218055725,0.4900522232055664,0.2793862521648407
1729696942221245700,5.70324560546875,0.4783697724342346,0.11865708231925964,0.20425204932689667
1729696942231015000,5.713014892578125,0.3891860544681549,-0.3163425326347351,0.13889139890670776
1729696942240784100,5.7227841796875,0.34398335218429565,-0.6730773448944092,0.05825955793261528
1729696942250553300,5.73255322265625,0.33237725496292114,-0.8819870948791504,-0.04497363045811653
1729696942260322800,5.74232275390625,0.3232145607471466,-0.958953857421875,-0.14942851662635803
1729696942270092000,5.752092041015625,0.30366745591163635,-0.9760575890541077,-0.232503741979599
1729696942279861200,5.761861328125,0.269459992647171,-1.0023239850997925,-0.2880908250808716
1729696942289630500,5.77163037109375,0.22731153666973114,-1.0597436428070068,-0.31435728073120117
1729696942299399700,5.781399658203125,0.18821731209754944,-1.1330453157424927,-0.31863319873809814
1729696942309169000,5.7911689453125,0.1540098637342453,-1.2240616083145142,-0.31802234053611755
1729696942318938000,5.800938232421875,0.13140851259231567,-1.3395116329193115,-0.3100813329219818
1729696942328707600,5.81070751953125,0.09659022092819214,-1.4610702991485596,-0.29358845949172974
1729696942338476800,5.820476806640625,0.04527905210852623,-1.5392587184906006,-0.29175591468811035
1729696942348246000,5.83024609375,-0.03290939703583717,-1.5313177108764648,-0.3149681091308594
1729696942358015200,5.84001513671875,-0.1355317384004593,-1.4604594707489014,-0.362003356218338
1729696942367784400,5.849784423828125,-0.25770118832588196,-1.388379454612732,-0.42003384232521057
1729696942377553700,5.8595537109375,-0.3817031681537628,-1.3584479093551636,-0.48600533604621887
1729696942387323000,5.869322998046875,-0.47027602791786194,-1.4091482162475586,-0.5722111463546753
1729696942397092000,5.879092041015625,-0.5154787302017212,-1.522765874862671,-0.6901046633720398
1729696942406861600,5.888861572265625,-0.5075377225875854,-1.6510437726974487,-0.8159392476081848
1729696942416630800,5.898630859375,-0.463556706905365,-1.72251296043396,-0.9240592122077942
1729696942426400000,5.90839990234375,-0.4098021686077118,-1.6681475639343262,-1.0248489379882812
1729696942436169200,5.918169189453125,-0.3438306450843811,-1.3938770294189453,-1.1293038129806519
1729696942445938400,5.9279384765625,-0.2686964273452759,-0.8331193327903748,-1.21482253074646
1729696942455707600,5.937707763671875,-0.1727934181690216,0.025197450071573257,-1.264301061630249
1729696942465476900,5.947476806640625,-0.012751436792314053,1.1796988248825073,-1.2685770988464355
1729696942475246300,5.957246337890625,0.18821731209754944,2.3555798530578613,-1.283237338066101
1729696942485015600,5.967015625,0.3378748893737793,3.0233120918273926,-1.3516522645950317
1729696942494784800,5.97678466796875,0.4398863911628723,2.9817745685577393,-1.356539011001587
1729696942504554000,5.986553955078125,0.5040253400802612,2.4001715183258057,-1.1213628053665161
1729696942514323200,5.9963232421875,0.5192965269088745,1.5284925699234009,-0.7163711190223694
1729696942524092400,6.006092529296875,0.4557684063911438,0.626882016658783,-0.31680065393447876
1729696942533861600,6.015861572265625,0.34459421038627625,-0.10979979485273361,-0.05047125369310379
1729696942543630800,6.025630859375,0.18333053588867188,-0.6535302400588989,0.09796462953090668
1729696942553400000,6.035400146484375,0.04650074616074562,-1.0780690908432007,0.23479440808296204
1729696942563169500,6.04516943359375,0.020845163613557816,-1.4103699922561646,0.341081827878952
1729696942572938800,6.054938720703125,0.10819631814956665,-1.662039041519165,0.4119401276111603
1729696942582708000,6.0647080078125,0.4191175699234009,-1.4036506414413452,0.7051467895507812
1729696942592477200,6.074477294921875,0.9676584005355835,-0.5954996943473816,0.9751412868499756
1729696942602246400,6.084246337890625,1.1820658445358276,0.19806721806526184,0.783335268497467
1729696942612015600,6.094015625,0.8748096227645874,1.0214893817901611,0.5102865099906921
1729696942621784800,6.103784912109375,0.48875415325164795,1.7630579471588135,0.41682690382003784
1729696942631554300,6.11355419921875,0.22975492477416992,2.351914644241333,0.35146623849868774
1729696942641323500,6.123323486328125,0.007406522985547781,2.7630913257598877,0.2011978179216385
1729696942651092700,6.1330927734375,-0.22410458326339722,2.8815956115722656,-0.059023115783929825
1729696942660862000,6.142862060546875,-0.36521029472351074,2.4233837127685547,-0.580763041973114
1729696942670631200,6.152631103515625,-0.4769953489303589,1.9841846227645874,-0.8275453448295593
1729696942680400400,6.162400390625,-0.4886014461517334,1.7709989547729492,-0.6180247068405151
1729696942690169600,6.172169677734375,-0.35177165269851685,1.40449059009552,-0.23739051818847656
1729696942699938800,6.181938720703125,-0.2015032321214676,0.9610154628753662,0.16332527995109558
1729696942709708300,6.191708251953125,-0.17890189588069916,0.6006155610084534,0.48035502433776855
1729696942719477500,6.2014775390625,-0.33711132407188416,0.4246915578842163,0.6379535794258118
1729696942729246700,6.211246826171875,-0.5588488578796387,0.39170581102371216,0.6153522729873657
1729696942739016000,6.221015869140625,-0.7012526392936707,0.35505497455596924,0.4516451954841614
1729696942748785200,6.23078515625,-0.7299624681472778,0.2695363461971283,0.237237811088562
1729696942758554400,6.240554443359375,-0.6792621612548828,0.13392825424671173,0.014889402315020561
1729696942768323600,6.250323486328125,-0.6016082167625427,-0.034665580838918686,-0.22456271946430206
1729696942778093000,6.260093017578125,-0.5197546482086182,-0.20333577692508698,-0.4805077314376831
1729696942787862300,6.2698623046875,-0.44339874386787415,-0.37620556354522705,-0.7328640222549438
1729696942797631500,6.279631591796875,-0.3835357129573822,-0.5735092163085938,-0.9405520558357239
1729696942807400700,6.289400634765625,-0.334057092666626,-0.8141830563545227,-1.093263864517212
1729696942817170000,6.299169921875,-0.3022930324077606,-1.0853992700576782,-1.1934428215026855
1729696942826939100,6.308939208984375,-0.32550522685050964,-1.3541719913482666,-1.2416998147964478
1729696942836708400,6.318708251953125,-0.3994177579879761,-1.5765204429626465,-1.2484190464019775
1729696942846477600,6.3284775390625,-0.5014292597770691,-1.7194586992263794,-1.2300937175750732
1729696942856247000,6.3382470703125,-0.6077166795730591,-1.8037556409835815,-1.194664478302002
1729696942866016300,6.348016357421875,-0.684148907661438,-1.832465410232544,-1.1580137014389038
1729696942875785500,6.357785400390625,-0.7360709309577942,-1.7768783569335938,-1.1280821561813354
1729696942885554700,6.3675546875,-0.758672297000885,-1.6583739519119263,-1.0883771181106567
1729696942895324000,6.377323974609375,-0.7519529461860657,-1.531928539276123,-1.0358442068099976
1729696942905093000,6.387093017578125,-0.735460102558136,-1.4048722982406616,-0.9759812355041504
1729696942914862300,6.3968623046875,-0.7598940134048462,-1.2387218475341797,-0.9075663089752197
1729696942924631800,6.4066318359375,-0.8112051486968994,-1.0585219860076904,-0.8403730988502502
1729696942934401000,6.416401123046875,-0.8319739699363708,-0.9229138493537903,-0.8189934492111206
1729696942944170200,6.426170166015625,-0.841747522354126,-0.8703809976577759,-0.8629744648933411
1729696942953939500,6.435939453125,-0.9333745837211609,-1.1037245988845825,-1.065775752067566
1729696942963708700,6.445708740234375,-0.833195686340332,-1.142818808555603,-1.2215417623519897
1729696942973478000,6.455477783203125,-0.7299624681472778,-1.1141090393066406,-1.3431004285812378
1729696942983247000,6.4652470703125,-0.6303179860115051,-1.042639970779419,-1.4652698040008545
1729696942993016300,6.475016357421875,-0.49654245376586914,-0.7866948843002319,-1.6039321422576904
1729696943002785800,6.484785888671875,-0.3432198166847229,-0.05421269312500954,-1.8604880571365356
1729696943012555000,6.494554931640625,-0.20700086653232574,0.9194778203964233,-2.0700087547302246
1729696943022324200,6.50432421875,-0.11231953650712967,1.444806456565857,-2.001593828201294
1729696943032093400,6.514093505859375,-0.04085041210055351,1.524827480316162,-1.7077761888504028
1729696943041862700,6.523862548828125,-0.0029778804164379835,1.3592878580093384,-1.2563600540161133
1729696943051631900,6.5336318359375,-0.0029778804164379835,1.1943590641021729,-0.6620057225227356
1729696943061401000,6.543401123046875,-0.012751436792314053,0.9536852836608887,-0.03458922728896141
1729696943071170300,6.55317041015625,-0.013973130844533443,0.435075968503952,0.4101075828075409
1729696943080939800,6.562939697265625,-0.026190076023340225,-0.05482354015111923,0.681323766708374
1729696943090709000,6.572708984375,-0.03840702027082443,-0.31267744302749634,0.8450308442115784
1729696943100478200,6.582478271484375,-0.0561215914785862,-0.3957526683807373,0.8963419795036316
1729696943110247400,6.592247314453125,-0.06223006546497345,-0.37803810834884644,0.8535826802253723
1729696943120016600,6.6020166015625,-0.04695888236165047,-0.32245099544525146,0.7350783348083496
1729696943129785900,6.611785888671875,-0.02680092304944992,-0.25647950172424316,0.5774797201156616
1729696943139555000,6.62155517578125,0.01046075951308012,-0.18378867208957672,0.4113292694091797
1729696943149324500,6.631324462890625,0.07826480269432068,-0.10369132459163666,0.264725923538208
1729696943159093800,6.64109375,0.16439427435398102,-0.01511846948415041,0.1486649513244629
1729696943168863000,6.650863037109375,0.25418880581855774,0.049020491540431976,0.06375718116760254
1729696943178632200,6.660632080078125,0.30366745591163635,0.08994726091623306,0.006948387715965509
1729696943188401400,6.6704013671875,0.2877854108810425,0.25060009956359863,-0.048638712614774704
1729696943198170600,6.680170654296875,0.24075017869472504,1.0275977849960327,-0.154926136136055
1729696943207939800,6.68993994140625,0.2572430372238159,2.787525177001953,0.07353074103593826
1729696943217709000,6.699708984375,0.4276694357395172,4.242563247680664,1.1040300130844116
1729696943227478500,6.709478515625,0.6555154919624329,4.602352142333984,2.2280654907226562
1729696943237247700,6.719247802734375,0.8283852338790894,4.483237266540527,2.901219129562378
1729696943247017000,6.729016845703125,0.9884272217750549,4.189419746398926,3.061260938644409
1729696943256786200,6.7387861328125,1.174124836921692,3.5235960483551025,2.8975539207458496
1729696943266555400,6.748555419921875,1.3866996765136719,2.4551477432250977,2.768054246902466
1729696943276324600,6.75832470703125,1.5308595895767212,0.8754968047142029,2.75339412689209
1729696943286093800,6.76809375,1.5333030223846436,-0.888706386089325,2.8969430923461914
1729696943295863300,6.77786328125,1.4532819986343384,-2.162933826446533,3.089359998703003
1729696943305632500,6.787632568359375,1.3787586688995361,-2.8917508125305176,3.199312448501587
1729696943315401700,6.797401611328125,1.2376528978347778,-3.170297384262085,3.1858739852905273
1729696943325171000,6.8071708984375,0.979264497756958,-2.9815454483032227,2.996511220932007
1729696943334940200,6.816940185546875,0.6213080286979675,-2.396888256072998,2.6574909687042236
1729696943344709400,6.82670947265625,0.3134410083293915,-1.4647353887557983,2.2977020740509033
1729696943354478600,6.836478515625,0.1540098637342453,-0.42812758684158325,1.9451667070388794
1729696943364247800,6.846247802734375,0.1295759677886963,0.4253024160861969,1.6092007160186768
1729696943374017300,6.856017333984375,0.21631628274917603,1.0459232330322266,1.3416496515274048
1729696943383786500,6.865786376953125,0.38552096486091614,1.5113887786865234,1.1040300130844116
1729696943393555700,6.8755556640625,0.6133670210838318,1.8876707553863525,0.7839460968971252
1729696943403325000,6.885324951171875,0.8277744054794312,2.3250374794006348,0.4626404345035553
1729696943413094100,6.89509423828125,1.0116394758224487,2.793022632598877,0.2677801549434662
1729696943422863400,6.90486328125,1.1661838293075562,3.2169506549835205,0.2378486543893814
1729696943432632600,6.914632568359375,1.2407071590423584,3.482058525085449,0.3282540440559387
1729696943442402000,6.924402099609375,1.2303227186203003,3.4270823001861572,0.4382065534591675
1729696943452171300,6.934171142578125,1.1564102172851562,2.868156909942627,0.5066214203834534
1729696943461940500,6.9439404296875,1.0739458799362183,1.7532843351364136,0.528001070022583
1729696943471709700,6.953709716796875,0.9688801169395447,0.45645561814308167,0.584199070930481
1729696943481479000,6.96347900390625,0.7422557473182678,-0.46905434131622314,0.7002600431442261
1729696943491248000,6.973248046875,0.428891122341156,-0.8905389308929443,0.8034932017326355
1729696943501017300,6.983017333984375,0.141182079911232,-1.0408073663711548,0.870686411857605
1729696943510786600,6.99278662109375,-0.06406260281801224,-1.112276554107666,0.8914552330970764
1729696943520556000,7.00255615234375,-0.16363070905208588,-1.1788588762283325,0.8364789485931396
1729696943530325200,7.0123251953125,-0.17645850777626038,-1.2484954595565796,0.7027034163475037
1729696943540094500,7.022094482421875,-0.15324631333351135,-1.2790378332138062,0.5176166892051697
1729696943549863700,7.03186376953125,-0.12392564117908478,-1.3779950141906738,0.33741676807403564
1729696943559633000,7.0416328125,-0.12453648447990417,-1.5667468309402466,0.17554223537445068
1729696943569402000,7.051402099609375,-0.1984490007162094,-1.7585529088974,0.009391776286065578
1729696943579171300,7.06117138671875,-0.3059581220149994,-1.9320335388183594,-0.17569494247436523
1729696943588940800,7.07094091796875,-0.40552622079849243,-2.095740556716919,-0.3613924980163574
1729696943598710000,7.0807099609375,-0.48127129673957825,-2.246619939804077,-0.5331169366836548
1729696943608479200,7.090479248046875,-0.5582380294799805,-2.3553507328033447,-0.7010999321937561
1729696943618248400,7.10024853515625,-0.6339830756187439,-2.3724544048309326,-0.8574768304824829
1729696943628017700,7.110017578125,-0.679872989654541,-2.2557826042175293,-0.9930849075317383
1729696943637787000,7.119786865234375,-0.7024743556976318,-1.9723494052886963,-1.120751976966858
1729696943647556000,7.12955615234375,-0.6914790868759155,-1.5349828004837036,-1.2056597471237183
1729696943657325300,7.1393251953125,-0.667579710483551,-0.9070318341255188,-1.2716312408447266
1729696943667094800,7.1490947265625,-0.5692332983016968,0.0032069480512291193,-1.1115893125534058
1729696943676864000,7.158864013671875,-0.16973918676376343,1.5162756443023682,-0.2722088098526001
1729696943686633200,7.16863330078125,0.43316707015037537,2.972611904144287,0.4516451954841614
1729696943696402400,7.17840234375,0.7147676348686218,3.382490396499634,0.5848098993301392
1729696943706171600,7.188171630859375,0.7373690009117126,2.984217882156372,0.5854207277297974
1729696943715940900,7.19794091796875,0.739201545715332,1.8388029336929321,0.5994702577590942
1729696943725710000,7.2077099609375,0.6237514019012451,0.15897299349308014,0.5890858173370361
1729696943735479600,7.2174794921875,0.4117874205112457,-1.1959625482559204,0.5157841444015503
1729696943745248800,7.227248779296875,0.3409291207790375,-2.086577892303467,0.3930038511753082
1729696943755018000,7.23701806640625,0.3733040392398834,-2.5667037963867188,0.19386765360832214
1729696943764787200,7.246787109375,0.3904077410697937,-2.558151960372925,-0.05474718660116196
1729696943774556400,7.256556396484375,0.3146626949310303,-2.153771162033081,-0.32840675115585327
1729696943784325600,7.26632568359375,0.14545799791812897,-1.5410913228988647,-0.5917583107948303
1729696943794094800,7.2760947265625,-0.0420721061527729,-0.9613972306251526,-0.8379297256469727
1729696943803864000,7.285864013671875,-0.15019206702709198,-0.6480326056480408,-1.1751173734664917
1729696943813633500,7.295633544921875,-0.03962871432304382,-0.6730773448944092,-1.5489559173583984
1729696943823402800,7.30540283203125,0.5058578848838806,-0.41285640001296997,-0.977813720703125
1729696943833172000,7.315171875,0.9804862141609192,0.2536543309688568,-0.3791070878505707
1729696943842941200,7.324941162109375,1.0073634386062622,2.3629097938537598,0.16943375766277313
1729696943852710400,7.33471044921875,0.6219188570976257,3.9249227046966553,1.0679900646209717
1729696943862479600,7.344479736328125,0.22914408147335052,3.8565077781677246,1.6250827312469482
1729696943872248800,7.354248779296875,0.12041326612234116,2.708725929260254,1.0966999530792236
1729696943882018300,7.364018310546875,0.011682453565299511,0.9677347540855408,-0.30275118350982666
1729696943891787500,7.37378759765625,-0.07261446863412857,-0.45561569929122925,-1.5825525522232056
1729696943901556700,7.383556640625,-0.14164020121097565,-0.4641675651073456,-1.8879761695861816
1729696943911326000,7.393325927734375,-0.37437301874160767,0.32512345910072327,-1.6289769411087036
1729696943921095200,7.40309521484375,-0.5808393955230713,1.0306520462036133,-1.2862915992736816
1729696943930864400,7.412864501953125,-0.6431457996368408,1.5657542943954468,-0.8574768304824829
1729696943940633600,7.422633544921875,-0.5948888659477234,1.9951798915863037,-0.41209283471107483
1729696943950402800,7.43240283203125,-0.49593162536621094,2.3500821590423584,-0.08345700800418854
1729696943960172300,7.44217236328125,-0.4605024755001068,2.6085469722747803,0.10101886838674545
1729696943969941500,7.45194140625,-0.5515187382698059,2.6910111904144287,0.18959172070026398
1729696943979710700,7.461710693359375,-0.7165238261222839,2.521806478500366,0.21646900475025177
1729696943989480000,7.47147998046875,-0.9089407324790955,1.4105989933013916,0.11567919701337814
1729696943999249200,7.481249267578125,-0.9852966070175171,1.0043855905532837,0.03749075159430504
1729696944009018400,7.491018310546875,-0.8545753359794617,0.8266290426254272,-0.011377030052244663
1729696944018787600,7.50078759765625,-0.7006418108940125,0.5908420085906982,-0.10911259055137634
1729696944028557000,7.51055712890625,-0.6113817691802979,0.37948885560035706,-0.28076067566871643
1729696944038326300,7.520326171875,-0.5985539555549622,0.19256959855556488,-0.5177693963050842
1729696944048095500,7.530095458984375,-0.6504759788513184,0.013591351918876171,-0.7689039707183838
1729696944057864700,7.53986474609375,-0.7385143637657166,-0.1244601309299469,-0.9710944294929504
1729696944067634000,7.549634033203125,-0.8362498879432678,-0.23387815058231354,-1.112200140953064
1729696944077403100,7.559403076171875,-0.9217684864997864,-0.3151208162307739,-1.223985195159912
1729696944087172400,7.56917236328125,-1.0286667346954346,-0.278469979763031,-1.2752963304519653
1729696944096941600,7.578941650390625,-1.0750911235809326,-0.21982865035533905,-1.3052278757095337
1729696944106711000,7.5887109375,-1.0885298252105713,-0.20822255313396454,-1.3418787717819214
1729696944116480300,7.598480224609375,-1.1172395944595337,-0.20394663512706757,-1.3846380710601807
1729696944126249500,7.60824951171875,-1.1538904905319214,-0.2760266065597534,-1.4542746543884277
1729696944136018700,7.618018798828125,-1.1532796621322632,-0.42873841524124146,-1.5575077533721924
1729696944145788000,7.627787841796875,-1.0928057432174683,-0.5747309327125549,-1.6937267780303955
1729696944155557000,7.63755712890625,-0.9865183234214783,-0.6584169864654541,-1.8837002515792847
1729696944165326300,7.647326416015625,-0.8851176500320435,-0.6559736132621765,-2.2062275409698486
1729696944175095800,7.657095703125,-0.7849387526512146,-0.62054443359375,-2.537306785583496
1729696944184865000,7.666864990234375,-0.6872031688690186,-0.5997756719589233,-2.5788443088531494
1729696944194634200,7.67663427734375,-0.6223769783973694,-0.621155321598053,-2.386427640914917
1729696944204403500,7.686403564453125,-0.5906129479408264,-0.6223769783973694,-2.111546277999878
1729696944214172700,7.696172607421875,-0.5667899250984192,-0.5173112750053406,-1.8171179294586182
1729696944223942000,7.70594189453125,-0.5533512830734253,-0.29801711440086365,-1.552010178565979
1729696944233711000,7.715711181640625,-0.5350258350372314,-0.010842538438737392,-1.3382136821746826
1729696944243480300,7.725480224609375,-0.4977641701698303,0.27503398060798645,-1.1335798501968384
1729696944253249500,7.73524951171875,-0.46905434131622314,0.4772244095802307,-0.8849649429321289
1729696944263019000,7.74501904296875,-0.47943875193595886,0.4821111857891083,-0.5679352283477783
1729696944272788200,7.754788330078125,-0.5307499170303345,0.21394924819469452,-0.22639526426792145
1729696944282557400,7.764557373046875,-0.5521295666694641,-0.19600561261177063,0.057648710906505585
1729696944292326700,7.77432666015625,-0.4995967149734497,-0.6278746128082275,0.16882291436195374
1729696944302096000,7.784095947265625,-0.41407808661460876,-0.9656731486320496,0.07230904698371887
1729696944311865000,7.793864990234375,-0.3279486298561096,-1.0627979040145874,-0.16103461384773254
1729696944321634600,7.803634521484375,-0.27297237515449524,-0.8453362584114075,-0.39804333448410034
1729696944331403800,7.81340380859375,-0.2815242409706116,-0.489212304353714,-0.5502206683158875
1729696944341173000,7.823173095703125,-0.33833301067352295,-0.2137201875448227,-0.5636593103408813
1729696944350942200,7.832942138671875,-0.39330926537513733,-0.16599774360656738,-0.42492061853408813
1729696944360711400,7.84271142578125,-0.42996010184288025,-0.33711132407188416,-0.18424680829048157
1729696944370480600,7.852480712890625,-0.45683738589286804,-0.6553627252578735,0.09368869662284851
1729696944380249900,7.862249755859375,-0.4745519757270813,-1.0450832843780518,0.3423035442829132
1729696944390019000,7.87201904296875,-0.48066043853759766,-1.4060940742492676,0.49745872616767883
1729696944399788300,7.881788330078125,-0.46661093831062317,-1.6547088623046875,0.5353312492370605
1729696944409557800,7.891557861328125,-0.3676536977291107,-1.6650933027267456,0.4235462248325348
1729696944419327000,7.901326904296875,-0.1587439328432083,-1.0346988439559937,0.04421006888151169
1729696944429096200,7.91109619140625,0.05199837312102318,0.1882936656475067,-0.4267531633377075
1729696944438865400,7.920865478515625,0.1680593490600586,1.1192249059677124,-0.5361711978912354
1729696944448634600,7.930634521484375,0.24380441009998322,1.6702091693878174,-0.2838149070739746
1729696944458403800,7.94040380859375,0.3623087704181671,2.3934521675109863,0.7027034163475037
1729696944468173300,7.95017333984375,0.6115344762802124,2.700173854827881,2.1364383697509766
1729696944477942500,7.959942626953125,0.8699228763580322,2.21569561958313,3.083251476287842
1729696944487711700,7.969711669921875,1.0739458799362183,1.6103460788726807,3.404557228088379
1729696944497481000,7.97948095703125,1.2400963306427002,1.0587509870529175,3.326368808746338
1729696944507250200,7.989250244140625,1.3457728624343872,0.603058934211731,3.1174590587615967
1729696944517019400,7.999019287109375,1.4789376258850098,0.08200624585151672,2.9494760036468506
1729696944526788600,8.00878857421875,1.627373456954956,-0.8007444143295288,2.8425776958465576
1729696944536557800,8.018557861328125,1.8057408332824707,-1.6107279062271118,2.7778279781341553
1729696944546327000,8.0283271484375,1.9951034784317017,-2.1604905128479004,2.684368371963501
1729696944556096500,8.038096435546874,1.9725021123886108,-2.29487681388855,2.6477174758911133
1729696944565865700,8.04786572265625,1.7214438915252686,-1.9057670831680298,2.633057117462158
1729696944575635000,8.057635009765624,1.2688060998916626,-1.0334771871566772,2.600071430206299
1729696944585404200,8.067404052734375,0.7129350900650024,0.04840964451432228,2.5188286304473877
1729696944595173400,8.07717333984375,0.24380441009998322,1.0178242921829224,2.334352731704712
1729696944604942600,8.086942626953125,0.05993938818573952,1.6958646774291992,2.1149823665618896
1729696944614711800,8.0967119140625,0.14667969942092896,1.9371494054794312,1.931117296218872
1729696944624481300,8.106481201171874,0.37208232283592224,2.0416042804718018,1.7252616882324219
1729696944634250500,8.11625048828125,0.6628456115722656,1.9383710622787476,1.4399960041046143
1729696944644019700,8.126019775390626,0.8326611518859863,1.570641040802002,1.0887588262557983
1729696944653789000,8.135788818359375,0.8674794435501099,1.1314418315887451,0.7680640816688538
1729696944663558100,8.14555810546875,0.8815289735794067,0.8278507590293884,0.49684789776802063
1729696944673327400,8.155327392578124,0.8943567276000977,0.5554128885269165,0.25800660252571106
1729696944683096600,8.1650966796875,0.9493330121040344,0.30007871985435486,0.07963921129703522
1729696944692865800,8.17486572265625,1.021412968635559,0.11499200016260147,-0.0492495596408844
1729696944702635300,8.18463525390625,1.1087641716003418,0.031916771084070206,-0.10789089649915695
1729696944712404500,8.194404541015626,1.1564102172851562,0.04474456235766411,-0.02176143415272236
1729696944722173700,8.204173583984375,1.1356414556503296,0.19623468816280365,0.14438901841640472
1729696944731943000,8.21394287109375,1.0537878274917603,0.2805316150188446,0.2787754237651825
1729696944741712100,8.223712158203124,0.9126821756362915,0.18707197904586792,0.3813977539539337
1729696944751481300,8.2334814453125,0.7471425533294678,-0.062153708189725876,0.4345414638519287
1729696944761250600,8.24325048828125,0.5846571922302246,-0.47943875193595886,0.3985014855861664
1729696944771020000,8.25302001953125,0.44843825697898865,-1.0463049411773682,0.29832252860069275
1729696944780789200,8.262789306640625,0.34276166558265686,-1.6229448318481445,0.1749313771724701
1729696944790558500,8.272558349609374,0.25296711921691895,-2.0945188999176025,0.05825955793261528
1729696944800327700,8.28232763671875,0.15950748324394226,-2.4268198013305664,-0.039476003497838974
1729696944810097000,8.292096923828124,0.0361163429915905,-2.674823760986328,-0.13293562829494476
1729696944819866000,8.3018662109375,-0.09032903611660004,-2.8624303340911865,-0.23983390629291534
1729696944829635300,8.31163525390625,-0.18134528398513794,-2.9522247314453125,-0.3772745430469513
1729696944839404500,8.321404541015625,-0.2375432252883911,-2.9583332538604736,-0.5416688323020935
1729696944849174000,8.331174072265625,-0.2748049199581146,-2.892972707748413,-0.7621846795082092
1729696944858943200,8.340943115234374,-0.329781174659729,-2.8618195056915283,-1.0046910047531128
1729696944868712400,8.35071240234375,-0.4256841838359833,-2.726135015487671,-1.2441431283950806
1729696944878481700,8.360481689453126,-0.5600705742835999,-2.5984678268432617,-1.446333646774292
1729696944888251000,8.3702509765625,-0.7171346545219421,-2.295487642288208,-1.524522066116333
1729696944898020000,8.38002001953125,-0.836860716342926,-1.7060199975967407,-1.543458342552185
1729696944907789300,8.389789306640624,-0.7611156702041626,-0.5985539555549622,-1.0645540952682495
1729696944917558800,8.399558837890625,-0.2821350693702698,0.885881245136261,0.3441360890865326
1729696944927328000,8.409327880859376,0.1668376624584198,1.5834687948226929,0.7350783348083496
1729696944937097200,8.41909716796875,0.4533250331878662,1.7612253427505493,0.4125509560108185
1729696944946866400,8.428866455078126,0.6939988136291504,2.0837526321411133,0.2799971103668213
1729696944956635600,8.4386357421875,0.8723662495613098,1.913326382637024,0.1987544298171997
1729696944966404900,8.44840478515625,0.8534299731254578,0.9909469485282898,0.15538427233695984
1729696944976174000,8.458174072265624,0.6842252612113953,0.036192700266838074,0.09979717433452606
1729696944985943300,8.467943359375,0.5999283790588379,-0.8037986159324646,-0.027259059250354767
1729696944995712800,8.477712646484376,0.5302917957305908,-1.1794697046279907,-0.2465532273054123
1729696945005482000,8.48748193359375,0.3763582706451416,-0.9760575890541077,-0.5293754935264587
1729696945015251200,8.497251220703125,0.11552648991346359,-0.35238251090049744,-0.8037222623825073
1729696945025020400,8.5070205078125,-0.21799612045288086,0.256708562374115,-1.0248489379882812
1729696945034789600,8.51678955078125,-0.6028298735618591,0.35138988494873047,-1.3559281826019287
1729696945044558800,8.526558837890626,-0.8405258059501648,-0.25892287492752075,-1.7719151973724365
1729696945054328000,8.536328125,-0.49532076716423035,-1.0774582624435425,-1.5611728429794312
1729696945064097500,8.54609765625,0.194325789809227,-0.6504759788513184,-0.585038959980011
1729696945073866800,8.55586669921875,0.5840463638305664,1.9139372110366821,0.33802759647369385
1729696945083636000,8.565635986328125,0.6151995658874512,4.2407307624816895,1.1327399015426636
1729696945093405200,8.5754052734375,0.45943349599838257,4.167428970336914,1.3129398822784424
1729696945103174400,8.58517431640625,0.2456369549036026,3.331179141998291,0.92138671875
1729696945112943600,8.594943603515626,-0.06589514762163162,2.613433599472046,0.1621035933494568
1729696945122712800,8.604712890625,-0.3603235185146332,2.0727574825286865,-0.6058077812194824
1729696945132482000,8.61448193359375,-0.46966519951820374,1.9029419422149658,-0.894738495349884
1729696945142251500,8.62425146484375,-0.4348468780517578,1.714190125465393,-0.8556442856788635
1729696945152020700,8.634020751953125,-0.29618456959724426,1.4417521953582764,-0.6943806409835815
1729696945161790000,8.6437900390625,-0.2149418741464615,1.215127944946289,-0.5471664071083069
1729696945171559200,8.65355908203125,-0.20883341133594513,1.1235008239746094,-0.4908921420574188
1729696945181328400,8.663328369140626,-0.2662530541419983,1.1534323692321777,-0.5134934782981873
1729696945191097600,8.67309765625,-0.3676536977291107,1.219403862953186,-0.5642701387405396
1729696945200866800,8.68286669921875,-0.4977641701698303,1.2774343490600586,-0.6064186096191406
1729696945210636300,8.69263623046875,-0.6455891728401184,1.1851963996887207,-0.6387935280799866
1729696945220405500,8.702405517578125,-0.7965448498725891,0.5816792845726013,-0.7127060294151306
1729696945230174700,8.7121748046875,-0.8631271719932556,0.19256959855556488,-0.788451075553894
1729696945239944000,8.72194384765625,-0.8319739699363708,0.15775130689144135,-0.7670714259147644
1729696945249713200,8.731713134765625,-0.8258655071258545,-0.0022906772792339325,-0.7273663878440857
1729696945259482400,8.741482421875,-0.7965448498725891,-0.004123218823224306,-0.691326379776001
1729696945269251600,8.75125146484375,-0.8075400590896606,-0.021837789565324783,-0.6852179169654846
1729696945279020800,8.761020751953126,-0.8191461563110352,-0.0261137206107378,-0.7304205894470215
1729696945288790300,8.770790283203125,-0.8863393664360046,-0.05726693198084831,-0.8263236284255981
1729696945298559500,8.7805595703125,-0.9419264793395996,-0.10979979485273361,-0.9338327646255493
1729696945308328700,8.79032861328125,-0.9339854717254639,-0.15439164638519287,-1.0028585195541382
1729696945318098000,8.800097900390625,-0.9254335761070251,-0.18867544829845428,-1.0236272811889648
1729696945327867100,8.8098671875,-0.8802309036254883,-0.20761170983314514,-1.001025915145874
1729696945337636400,8.81963623046875,-0.8356390595436096,-0.23387815058231354,-0.9637642502784729
1729696945347405600,8.829405517578126,-0.8319739699363708,-0.2821350693702698,-0.9558232426643372
1729696945357174800,8.8391748046875,-0.860683798789978,-0.3432198166847229,-1.0004150867462158
1729696945366944300,8.8489443359375,-0.9174925684928894,-0.4085804522037506,-1.1134217977523804
1729696945376713500,8.85871337890625,-0.9681929349899292,-0.48310381174087524,-1.3046170473098755
1729696945386482700,8.868482666015625,-0.998735249042511,-0.5570163726806641,-1.5526210069656372
1729696945396252000,8.878251953125,-1.009730577468872,-0.5869478583335876,-1.9142426252365112
1729696945406021000,8.888021240234375,-1.0030112266540527,-0.30656898021698,-2.6716930866241455
1729696945415790300,8.897790283203125,-0.9071081876754761,0.4289674758911133,-3.3375930786132812
1729696945425559600,8.9075595703125,-0.6963658928871155,1.1974133253097534,-3.2514636516571045
1729696945435329000,8.9173291015625,-0.45683738589286804,1.7380131483078003,-2.5855636596679688
1729696945445098200,8.92709814453125,-0.26197710633277893,1.871788740158081,-1.6265335083007812
1729696945454867500,8.936867431640625,-0.20516832172870636,1.5443745851516724,-0.6326850652694702
1729696945464636700,8.94663671875,-0.2247154414653778,1.047144889831543,0.11690089106559753
1729696945474406000,8.956406005859375,-0.2656421959400177,0.5511369109153748,0.5463265180587769
1729696945484175000,8.966175048828125,-0.32428354024887085,0.09605573117733002,0.6910973191261292
1729696945493944300,8.9759443359375,-0.37742725014686584,-0.25892287492752075,0.6208499073982239
1729696945503713500,8.985713623046875,-0.3853682577610016,-0.4464530050754547,0.4479801058769226
1729696945513483000,8.99548291015625,-0.34871742129325867,-0.4757736623287201,0.2274642437696457
1729696945523252200,9.005252197265625,-0.3047364354133606,-0.41591063141822815,-0.02970244735479355
1729696945533021400,9.015021484375,-0.280913382768631,-0.3316137194633484,-0.28137150406837463
1729696945542790700,9.024790771484374,-0.278469979763031,-0.27236151695251465,-0.46401485800743103
1729696945552559900,9.034559814453125,-0.2931303381919861,-0.28763270378112793,-0.5324297547340393
1729696945562329000,9.0443291015625,-0.33527877926826477,-0.4134672284126282,-0.4921138286590576
1729696945572098300,9.054098388671875,-0.3994177579879761,-0.676742434501648,-0.3656684458255768
1729696945581867800,9.06386767578125,-0.46966519951820374,-1.0682954788208008,-0.18424680829048157
1729696945591637000,9.073636962890625,-0.5105919241905212,-1.5355936288833618,0.0032833039294928312
1729696945601406200,9.08340625,-0.5136461853981018,-1.9955615997314453,0.14377817511558533
1729696945611175400,9.093175537109374,-0.486768901348114,-2.338247060775757,0.1987544298171997
1729696945620944600,9.102944580078125,-0.4116346836090088,-2.3626809120178223,0.13950224220752716
1729696945630713900,9.1127138671875,-0.2399866133928299,-1.5435346364974976,-0.1665322333574295
1729696945640483000,9.122483154296875,-0.04085041210055351,0.15347537398338318,-0.6021426916122437
1729696945650252300,9.132252197265625,0.08070819079875946,1.7813832759857178,-0.6894938349723816
1729696945660021800,9.142021728515624,0.20837527513504028,2.9536755084991455,0.2775537371635437
1729696945669791000,9.151791015625,0.5131880640983582,3.3849337100982666,2.0251877307891846
1729696945679560200,9.161560302734374,0.8619818091392517,2.897477626800537,3.1870956420898438
1729696945689329400,9.171329345703125,1.0855519771575928,2.1454482078552246,3.4662528038024902
1729696945699098600,9.1810986328125,1.127089500427246,1.4765704870224,3.286663770675659
1729696945708867800,9.190867919921875,1.0537878274917603,0.8101361989974976,2.8340258598327637
1729696945718637000,9.200636962890625,1.1655728816986084,0.35627666115760803,2.493783950805664
1729696945728406500,9.210406494140624,1.5088690519332886,-0.023059483617544174,2.4510245323181152
1729696945738175700,9.22017578125,1.8998113870620728,-0.569844126701355,2.5823566913604736
1729696945747945000,9.229945068359376,2.143004894256592,-1.327905535697937,2.7491180896759033
1729696945757714200,9.239714111328125,2.102689027786255,-1.8868308067321777,2.881671905517578
1729696945767483400,9.2494833984375,1.9767780303955078,-2.021217107772827,2.8773961067199707
1729696945777252600,9.259252685546874,1.6927341222763062,-1.8465149402618408,2.711245536804199
1729696945787021800,9.269021728515625,1.2547565698623657,-1.4488533735275269,2.4339208602905273
1729696945796791000,9.278791015625,0.7501968145370483,-0.8050203323364258,2.1486551761627197
1729696945806560500,9.288560546875,0.3598653972148895,-0.04932591691613197,1.888968825340271
1729696945816329700,9.298329833984376,0.24991288781166077,0.6140542030334473,1.6525708436965942
1729696945826099000,9.308098876953125,0.3879643678665161,0.9347490072250366,1.4479371309280396
1729696945835868200,9.3178681640625,0.563277542591095,1.0636377334594727,1.207874059677124
1729696945845637400,9.327637451171874,0.7685222029685974,1.3953278064727783,0.9274951815605164
1729696945855406600,9.337406494140625,0.9529981017112732,1.5602566003799438,0.6159631013870239
1729696945865176000,9.347176025390626,1.077610969543457,1.565143346786499,0.2940466105937958
1729696945874945300,9.3569453125,1.1637403964996338,1.4985610246658325,-0.0016034740256145597
1729696945884714500,9.366714599609375,1.2028346061706543,1.333632230758667,-0.2691545784473419
1729696945894483700,9.376483642578124,1.248037338256836,1.0495883226394653,-0.4664582312107086
1729696945904253000,9.3862529296875,1.2981268167495728,0.7246175408363342,-0.5299863815307617
1729696945914022100,9.396022216796876,1.313398003578186,0.3996468186378479,-0.4420243501663208
1729696945923791400,9.405791259765625,1.2620867490768433,0.016034740954637527,-0.22822780907154083
1729696945933560600,9.415560546875,1.1313655376434326,-0.352993369102478,-0.011987877078354359
1729696945943329800,9.425329833984375,0.9743777513504028,-0.5967214107513428,0.10407309979200363
1729696945953099300,9.435099365234375,0.8100598454475403,-0.7885274291038513,0.1492757946252823
1729696945962868500,9.444868408203124,0.6530720591545105,-0.9668948650360107,0.15477342903614044
1729696945972637700,9.4546376953125,0.5370110869407654,-1.157479166984558,0.0955212414264679
1729696945982407000,9.464406982421876,0.4441623091697693,-1.4415231943130493,-0.032756682485342026
1729696945992176000,9.474176025390625,0.34337252378463745,-1.8116966485977173,-0.17264071106910706
1729696946001945300,9.4839453125,0.2181488275527954,-2.2069149017333984,-0.2612135708332062
1729696946011714800,9.49371484375,0.07398887723684311,-2.4934022426605225,-0.30641624331474304
1729696946021484000,9.503484130859375,-0.07200361788272858,-2.627788543701172,-0.34673216938972473
1729696946031253200,9.513253173828126,-0.20333577692508698,-2.6558876037597656,-0.4133145213127136
1729696946041022500,9.5230224609375,-0.3181750774383545,-2.6241235733032227,-0.5269321203231812
1729696946050791700,9.532791748046876,-0.42690587043762207,-2.60213303565979,-0.6577298045158386
1729696946060561000,9.542560791015624,-0.5570163726806641,-2.584418296813965,-0.7915053367614746
1729696946070330000,9.552330078125,-0.7043069005012512,-2.555708646774292,-0.927724301815033
1729696946080099300,9.562099365234374,-0.8283088803291321,-2.4213221073150635,-0.9998042583465576
1729696946089868800,9.571868896484375,-0.9248227477073669,-2.139721632003784,-0.9234483242034912
1729696946099638000,9.581637939453126,-0.9602518677711487,-1.8880524635314941,-0.7945595979690552
1729696946109407200,9.5914072265625,-0.888171911239624,-1.467789649963379,-0.631463348865509
1729696946119176400,9.601176513671875,-0.6468108892440796,-0.7017871737480164,-0.16408884525299072
1729696946128945700,9.610945556640624,-0.18989713490009308,0.23593975603580475,0.23112933337688446
1729696946138715000,9.62071484375,0.30488914251327515,1.4423631429672241,0.19753272831439972
1729696946148484000,9.630484130859376,0.7312605381011963,2.6641340255737305,0.09857547283172607
1729696946158253600,9.640253662109375,1.1112074851989746,2.8382253646850586,0.11629004776477814
1729696946168022800,9.650022705078126,1.155799388885498,1.6983081102371216,0.22257746756076813
1729696946177792000,9.6597919921875,0.8332720398902893,0.5163186192512512,0.26045000553131104
1729696946187561200,9.669561279296875,0.637190043926239,-0.47943875193595886,0.20364120602607727
1729696946197330400,9.679330322265624,0.5467846393585205,-1.1696960926055908,0.06375718116760254
1729696946207099600,9.689099609375,0.46065518260002136,-1.4696221351623535,-0.19768545031547546
1729696946216868900,9.698868896484376,0.3085542321205139,-1.2564364671707153,-0.5563291311264038
1729696946226638000,9.70863818359375,0.06360447406768799,-0.671855628490448,-0.8776348233222961
1729696946236407600,9.718407470703125,-0.22838051617145538,-0.20822255313396454,-1.0712733268737793
1729696946246176800,9.7281767578125,-0.4482855200767517,-0.14522893726825714,-1.162900447845459
1729696946255946000,9.737946044921875,-0.36398860812187195,-0.4605024755001068,-0.899625301361084
1729696946265715200,9.747715087890626,0.0031305921729654074,-1.1538140773773193,-0.42064470052719116
1729696946275484400,9.757484375,0.2315874695777893,-1.3645564317703247,0.011835165321826935
1729696946285253600,9.767253662109376,0.0745997205376625,-0.13484452664852142,0.5310553312301636
1729696946295023000,9.777023193359375,-0.1483595222234726,1.3586770296096802,1.0728768110275269
1729696946304792300,9.786792236328125,-0.2546469569206238,1.821088433265686,1.250022530555725
1729696946314561500,9.7965615234375,-0.2668638825416565,2.050766944885254,0.917110800743103
1729696946324330800,9.806330810546875,-0.3200076222419739,1.93104088306427,0.015500249341130257
1729696946334100000,9.816099853515626,-0.43118181824684143,1.5590349435806274,-0.8770239353179932
1729696946343869200,9.825869140625,-0.6602495312690735,1.4832898378372192,-1.1421316862106323
1729696946353638400,9.835638427734375,-0.8869501948356628,1.4759596586227417,-1.1176977157592773
1729696946363407600,9.84540771484375,-0.9009997248649597,1.2340642213821411,-0.8703046441078186
1729696946373176800,9.8551767578125,-0.6003865003585815,1.0330954790115356,-0.4023192822933197
1729696946382946300,9.8649462890625,-0.30901235342025757,0.9078717231750488,0.018554486334323883
1729696946392715500,9.874715576171875,-0.2754157483577728,0.9915578365325928,0.17981816828250885
1729696946402484700,9.884484619140625,-0.4098021686077118,1.2621631622314453,0.07963921129703522
1729696946412254000,9.89425390625,-0.5478536486625671,1.569419264793396,-0.12255123257637024
1729696946422023200,9.904023193359375,-0.643756628036499,1.7807724475860596,-0.2990860939025879
1729696946431792400,9.91379248046875,-0.6902574300765991,1.7563385963439941,-0.43713757395744324
1729696946441561900,9.923561767578125,-0.6462000608444214,1.6457751989364624,-0.521434485912323
1729696946451331000,9.9333310546875,-0.588780403137207,1.3195828199386597,-0.5960342288017273
1729696946461100300,9.943100341796875,-0.5405234694480896,1.2371183633804321,-0.6473453640937805
1729696946470869500,9.952869384765625,-0.5356366634368896,1.164427638053894,-0.6577298045158386
1729696946480638700,9.962638671875,-0.6040515899658203,0.9145910739898682,-0.6436802744865417
1729696946490408000,9.972407958984375,-0.730573296546936,0.49738237261772156,-0.6051968932151794
1729696946500177200,9.98217724609375,-0.9321529269218445,-0.06398624926805496,-0.5636593103408813
1729696946509946400,9.9919462890625,-1.0579874515533447,-0.5032618045806885,-0.5661026835441589
1729696946519715800,10.0017158203125,-1.0928057432174683,-0.7414922118186951,-0.6479562520980835
1729696946529485000,10.011485107421874,-1.1202938556671143,-0.8459470868110657,-0.7597413063049316
1729696946539254300,10.021254150390625,-1.1318999528884888,-0.8819870948791504,-0.848924994468689
1729696946549023500,10.0310234375,-1.1147962808609009,-0.8496121764183044,-0.9069554805755615
1729696946558792700,10.040792724609375,-1.105022668838501,-0.8209023475646973,-0.9600991606712341
1729696946568562000,10.05056201171875,-1.1190721988677979,-0.8593857288360596,-1.043174386024475
1729696946578331100,10.0603310546875,-1.151447057723999,-0.9730033278465271,-1.1616787910461426
1729696946588100600,10.0701005859375,-1.2009257078170776,-1.089064359664917,-1.3284400701522827
1729696946597869800,10.079869873046874,-1.2473500967025757,-1.0939511060714722,-1.5465126037597656
1729696946607639000,10.08963916015625,-1.230857253074646,-0.9956046938896179,-1.802457571029663
1729696946617408300,10.099408203125,-1.1441168785095215,-0.8312867879867554,-2.137812614440918
1729696946627177500,10.109177490234375,-1.0121738910675049,-0.5020400881767273,-2.628933906555176
1729696946636946700,10.11894677734375,-0.8478559851646423,-0.08292251825332642,-3.19335675239563
1729696946646716000,10.1287158203125,-0.6884248852729797,0.282364159822464,-3.4951915740966797
1729696946656485000,10.138485107421875,-0.5619031190872192,0.6696413159370422,-3.4279985427856445
1729696946666254600,10.148254638671874,-0.4763845205307007,0.941468358039856,-3.0583596229553223
1729696946676023800,10.15802392578125,-0.4000285863876343,0.9561286568641663,-2.4658377170562744
1729696946685793000,10.16779296875,-0.3438306450843811,0.6366555690765381,-1.6754013299942017
1729696946695562200,10.177562255859375,-0.3432198166847229,0.08078455179929733,-0.7982246279716492
1729696946705331500,10.18733154296875,-0.3694862425327301,-0.41652145981788635,-0.16042375564575195
1729696946715100700,10.1971005859375,-0.3700970709323883,-0.5588488578796387,0.15171918272972107
1729696946724870000,10.206869873046875,-0.32733777165412903,-0.35116082429885864,0.2402920424938202
1729696946734639400,10.216639404296876,-0.2796916961669922,-0.0328330397605896,0.23051849007606506
1729696946744408600,10.22640869140625,-0.25647950172424316,0.13453911244869232,0.2396811991930008
1729696946754177800,10.236177734375,-0.278469979763031,0.06123743951320648,0.3148154020309448
1729696946763947000,10.245947021484374,-0.3450523316860199,-0.14156384766101837,0.4510343372821808
1729696946773716200,10.25571630859375,-0.42996010184288025,-0.37864893674850464,0.6122980117797852
1729696946783485400,10.2654853515625,-0.4989858567714691,-0.6352047920227051,0.7625664472579956
1729696946793254700,10.275254638671875,-0.537469208240509,-0.9155836701393127,0.8731297850608826
1729696946803024100,10.285024169921876,-0.5136461853981018,-1.2197855710983276,0.8993962407112122
1729696946812793300,10.29479345703125,-0.4195757210254669,-1.4690113067626953,0.815710186958313
1729696946822562600,10.3045625,-0.29801711440086365,-1.3810492753982544,0.6104654669761658
1729696946832331800,10.314331787109374,-0.12881241738796234,-0.6492542624473572,0.2518981397151947
1729696946842101000,10.32410107421875,0.09048175066709518,0.5285356044769287,-0.10544750839471817
1729696946851870200,10.3338701171875,0.28045526146888733,1.640277624130249,-0.21356746554374695
1729696946861639400,10.343639404296875,0.4582118093967438,2.3934521675109863,0.01794363744556904
1729696946871408600,10.35340869140625,0.7019398808479309,2.97505521774292,0.838922381401062
1729696946881177900,10.363177734375,1.035462498664856,3.400815725326538,2.3618409633636475
1729696946890947300,10.372947265625,1.3573789596557617,2.983607053756714,3.488854169845581
1729696946900716500,10.382716552734376,1.63592529296875,2.1155166625976562,3.6989855766296387
1729696946910485800,10.39248583984375,1.9144716262817383,1.5046695470809937,3.500460147857666
1729696946920255000,10.4022548828125,2.152167558670044,0.7960866689682007,3.3318662643432617
1729696946930024200,10.412024169921875,2.3384759426116943,-0.34871742129325867,3.3453049659729004
1729696946939793400,10.42179345703125,2.441709280014038,-1.6150038242340088,3.387453556060791
1729696946949563000,10.43156298828125,2.479581832885742,-2.518446922302246,3.2872745990753174
1729696946959332000,10.44133203125,2.476527452468872,-3.0823352336883545,3.0075063705444336
1729696946969101300,10.451101318359376,2.1625521183013916,-3.1660213470458984,2.631835460662842
1729696946978870500,10.46087060546875,1.595609426498413,-2.769505023956299,2.227454423904419
1729696946988639700,10.4706396484375,0.8913025259971619,-2.1061248779296875,1.8339924812316895
1729696946998409000,10.480408935546874,0.2566322088241577,-1.3822709321975708,1.4570997953414917
1729696947008178200,10.49017822265625,-0.07689040154218674,-0.7170583009719849,1.1791642904281616
1729696947017947400,10.499947509765626,-0.012140588834881783,-0.18256697058677673,1.0649358034133911
1729696947027716900,10.509716796875,0.24808034300804138,0.05512896552681923,1.0233982801437378
1729696947037486000,10.519486083984376,0.5009710788726807,0.20722992718219757,0.9513182640075684
1729696947047255300,10.52925537109375,0.7263737320899963,0.5938962697982788,0.8028823733329773
1729696947057024500,10.5390244140625,0.8473215103149414,0.9775083065032959,0.6269583702087402
1729696947066793700,10.548793701171874,0.920012354850769,1.1900831460952759,0.49440449476242065
1729696947076563000,10.55856298828125,0.9420028328895569,1.1955808401107788,0.4101075828075409
1729696947086332400,10.56833251953125,0.9248991012573242,0.9762866497039795,0.27022355794906616
1729696947096101600,10.5781015625,0.9291750192642212,0.4014793634414673,-0.004657710436731577
1729696947105870800,10.587870849609375,1.0195804834365845,-0.5283065438270569,-0.3797179162502289
1729696947115640000,10.59764013671875,1.1160943508148193,-1.4122024774551392,-0.7096518278121948
1729696947125409300,10.6074091796875,1.1228135824203491,-1.9515806436538696,-0.9448279738426208
1729696947135178500,10.617178466796876,1.0495119094848633,-2.1122334003448486,-1.0547804832458496
1729696947144947700,10.62694775390625,0.9303967356681824,-1.984566330909729,-1.0492829084396362
1729696947154717000,10.636717041015626,0.8259418606758118,-1.5019971132278442,-0.927724301815033
1729696947164486400,10.646486328125,0.7563052773475647,-0.9284114837646484,-0.7157602906227112
1729696947174255600,10.656255615234375,0.688501238822937,-0.7769213318824768,-0.4811185598373413
1729696947184024800,10.66602490234375,0.6219188570976257,-0.8783220052719116,-0.29236677289009094
1729696947193794000,10.6757939453125,0.4692070484161377,-1.1073896884918213,-0.20990239083766937
1729696947203563300,10.685563232421876,0.2340308576822281,-1.4616811275482178,-0.22578442096710205
1729696947213332500,10.69533251953125,-0.019470756873488426,-1.8868308067321777,-0.338791161775589
1729696947223101700,10.705101806640625,-0.226547971367836,-2.2441763877868652,-0.4792860448360443
1729696947232871200,10.71487109375,-0.37742725014686584,-2.3944449424743652,-0.5581616759300232
1729696947242640400,10.724640380859375,-0.5069268941879272,-2.4103269577026367,-0.5471664071083069
1729696947252409600,10.73440966796875,-0.6242095232009888,-2.3315277099609375,-0.4841728210449219
1729696947262178800,10.7441787109375,-0.6823163628578186,-2.246009111404419,-0.4010975956916809
1729696947271948000,10.753947998046876,-0.6957550048828125,-2.098794937133789,-0.31313556432724
1729696947281717200,10.76371728515625,-0.6071057915687561,-1.7573312520980835,-0.13660071790218353
1729696947291486500,10.773486572265625,-0.2143310308456421,-1.25826895236969,0.0680331140756607
1729696947301255700,10.783255615234374,0.3904077410697937,-0.49532076716423035,0.02038702741265297
1729696947311025200,10.793025146484375,0.9670475721359253,0.7447755336761475,-0.021150587126612663
1729696947320794400,10.80279443359375,1.288964033126831,2.1918725967407227,-0.11705360561609268
1729696947330563600,10.8125634765625,1.3017919063568115,2.970168352127075,-0.19646374881267548
1729696947340332800,10.822332763671875,1.1808440685272217,2.329313278198242,-0.0364217683672905
1729696947350102000,10.83210205078125,0.9175689220428467,0.7692093849182129,0.16454698145389557
1729696947359871200,10.841871337890625,0.6286382079124451,-0.5832827687263489,0.20852798223495483
1729696947369640700,10.851640625,0.43316707015037537,-1.5368154048919678,0.135226309299469
1729696947379410000,10.861409912109375,0.20226679742336273,-2.161712169647217,-0.004046862944960594
1729696947389179100,10.87117919921875,-0.03718532621860504,-2.486682891845703,-0.18180342018604279
1729696947398948400,10.8809482421875,-0.255257785320282,-2.4384260177612305,-0.4188121557235718
1729696947408717600,10.890717529296875,-0.45561569929122925,-2.107346773147583,-0.6986565589904785
1729696947418486800,10.90048681640625,-0.6083275079727173,-1.7200695276260376,-1.0004150867462158
1729696947428256000,10.910256103515625,-0.5661790370941162,-1.3456201553344727,-1.2013838291168213
1729696947438025200,10.920025146484376,-0.14347274601459503,-0.48066043853759766,-0.82082599401474
1729696947447794700,10.929794677734375,0.5040253400802612,1.0837957859039307,0.12667444348335266
1729696947457564000,10.93956396484375,0.7275954484939575,1.893168330192566,0.6232932806015015
1729696947467333000,10.9493330078125,0.530902624130249,2.077033281326294,0.7393542528152466
1729696947477102300,10.959102294921875,0.2566322088241577,1.907828688621521,0.4504235088825226
1729696947486871600,10.96887158203125,-0.08544225990772247,1.6757067441940308,0.03871244564652443
1729696947496640800,10.978640869140625,-0.4116346836090088,1.5071128606796265,-0.26487863063812256
1729696947506410000,10.988409912109375,-0.6052733063697815,1.5455962419509888,-0.30580541491508484
1729696947516179500,10.998179443359374,-0.7128587365150452,1.7215203046798706,-0.21112407743930817
1729696947525948700,11.00794873046875,-0.7550072073936462,1.6140111684799194,-0.15126104652881622
1729696947535718000,11.0177177734375,-0.7195780873298645,1.3641746044158936,-0.14637427031993866
1729696947545487000,11.027487060546875,-0.5429668426513672,1.8772863149642944,-0.14759597182273865
1729696947555256300,11.03725634765625,-0.3285594582557678,2.524250030517578,-0.2062373012304306
1729696947565025500,11.047025634765625,-0.20761170983314514,3.206566333770752,-0.3473430275917053
1729696947574794800,11.056794677734375,-0.23387815058231354,3.7410576343536377,-0.4798968732357025
1729696947584564000,11.06656396484375,-0.3291703164577484,3.967071056365967,-0.5202127695083618
1729696947594333400,11.07633349609375,-0.4464530050754547,3.854064464569092,-0.4542413055896759
1729696947604102700,11.0861025390625,-0.5881695747375488,3.4283039569854736,-0.3375694751739502
1729696947613871900,11.095871826171875,-0.730573296546936,2.82784104347229,-0.21234577894210815
1729696947623641000,11.10564111328125,-0.8270871639251709,2.1356747150421143,-0.12010784447193146
1729696947633410300,11.115410400390624,-0.8790091872215271,1.446028232574463,-0.09384141117334366
1729696947643179500,11.125179443359375,-0.8851176500320435,0.8748859763145447,-0.15126104652881622
1729696947652949000,11.134948974609374,-0.8588512539863586,0.43202173709869385,-0.29175591468811035
1729696947662718200,11.14471826171875,-0.8270871639251709,0.08078455179929733,-0.4823402762413025
1729696947672487400,11.1544873046875,-0.818535327911377,-0.226547971367836,-0.6754443645477295
1729696947682256600,11.164256591796875,-0.8301414251327515,-0.5228089094161987,-0.8305995464324951
1729696947692025900,11.17402587890625,-0.9871291518211365,-0.5356366634368896,-0.839762270450592
1729696947701795000,11.183795166015624,-1.192984700202942,-0.3322245478630066,-0.7841751575469971
1729696947711564300,11.193564208984375,-1.0579874515533447,-0.44156619906425476,-0.9600991606712341
1729696947721333500,11.20333349609375,-1.0091196298599243,-0.09147437661886215,-0.950325608253479
1729696947731103000,11.21310302734375,-0.9272661209106445,0.072232685983181,-1.005301833152771
1729696947740872200,11.2228720703125,-0.8979454636573792,0.3232909142971039,-0.9936957955360413
1729696947750641400,11.232641357421874,-0.8857285380363464,0.40758782625198364,-1.071884274482727
1729696947760410600,11.24241064453125,-0.9498674869537354,0.3568875193595886,-1.2123790979385376
1729696947770179800,11.252179931640624,-1.060430884361267,0.2292204350233078,-1.390135645866394
1729696947779949000,11.261948974609375,-1.0805888175964355,0.2041756957769394,-1.5556752681732178
1729696947789718500,11.271718505859376,-1.0188932418823242,0.24693500995635986,-1.7303775548934937
1729696947799487700,11.28148779296875,-0.9376505613327026,0.32756683230400085,-1.945395827293396
1729696947809257000,11.291257080078125,-0.864959716796875,0.4424061179161072,-2.2117252349853516
1729696947819026200,11.301026123046874,-0.7769976854324341,0.5645755529403687,-2.476222038269043
1729696947828795400,11.31079541015625,-0.6963658928871155,0.5126535892486572,-2.5128729343414307
1729696947838564600,11.320564697265626,-0.6309288740158081,0.22066856920719147,-2.2605929374694824
1729696947848333800,11.330333740234375,-0.5991647839546204,-0.21799612045288086,-1.8665964603424072
1729696947858103000,11.34010302734375,-0.5777851343154907,-0.663303792476654,-1.5110833644866943
1729696947867872500,11.34987255859375,-0.5686224699020386,-0.8832087516784668,-1.333326816558838
1729696947877641700,11.359641845703125,-0.5759525895118713,-0.7842515110969543,-1.2166550159454346
1729696947887411000,11.369410888671876,-0.5954996943473816,-0.514867901802063,-0.9234483242034912
1729696947897180200,11.37918017578125,-0.5863370299339294,-0.23448899388313293,-0.4847836494445801
1729696947906949400,11.388949462890626,-0.5295282006263733,-0.08170082420110703,-0.053525492548942566
1729696947916718600,11.398718505859375,-0.44095537066459656,-0.09025268256664276,0.25861746072769165
1729696947926487800,11.40848779296875,-0.35116082429885864,-0.13056860864162445,0.4211028218269348
1729696947936257300,11.41825732421875,-0.28457847237586975,-0.07559234648942947,0.48402008414268494
1729696947946026500,11.428026611328125,-0.24243000149726868,0.10705098509788513,0.4901285767555237
1729696947955795700,11.437795654296876,-0.23387815058231354,0.35138988494873047,0.45469942688941956
1729696947965565000,11.44756494140625,-0.226547971367836,0.5566345453262329,0.40094485878944397
1729696947975334100,11.457334228515625,-0.18867544829845428,0.6635328531265259,0.37834352254867554
1729696947985103400,11.467103271484374,-0.13736428320407867,0.7020162343978882,0.396668940782547
1729696947994872600,11.47687255859375,-0.05184566229581833,0.7820371985435486,0.424157053232193
1729696948004642000,11.48664208984375,0.03306210786104202,1.006829023361206,0.3557421863079071
1729696948014411300,11.496411376953125,0.11919157207012177,1.519940733909607,0.211582213640213
1729696948024180500,11.506180419921876,0.23769593238830566,2.1992027759552,0.19020256400108337
1729696948033949700,11.51594970703125,0.40812233090400696,2.717888593673706,0.4186594486236572
1729696948043719000,11.525718994140625,0.6475744247436523,2.7142233848571777,0.9586484432220459
1729696948053488000,11.535488037109374,0.9762102961540222,2.2352428436279297,1.9237871170043945
1729696948063257300,11.54525732421875,1.3256149291992188,1.5126105546951294,3.0533199310302734
1729696948073026800,11.55502685546875,1.5595693588256836,0.751494824886322,3.5914764404296875
1729696948082796000,11.564796142578125,1.8191795349121094,0.5376983284950256,3.7020397186279297
1729696948092565200,11.574565185546875,2.135063886642456,0.5792359113693237,3.7564051151275635
1729696948102334500,11.58433447265625,2.4429309368133545,0.06184828653931618,3.8003861904144287
1729696948112103700,11.594103759765625,2.589534282684326,-0.977890133857727,3.7588486671447754
1729696948121873000,11.603872802734376,2.5724306106567383,-2.333360195159912,3.381955862045288
1729696948131642000,11.61364208984375,2.291440725326538,-3.4378483295440674,2.9085493087768555
1729696948141411600,11.62341162109375,1.8142926692962646,-3.966231346130371,2.502335786819458
1729696948151180800,11.633180908203125,1.2828556299209595,-4.026705265045166,2.0777206420898438
1729696948160950000,11.642949951171875,0.7544727325439453,-3.569791316986084,1.6916651725769043
1729696948170719200,11.65271923828125,0.34215080738067627,-2.7548446655273438,1.398458480834961
1729696948180488400,11.662488525390625,0.11919157207012177,-1.8171942234039307,1.1767208576202393
1729696948190257700,11.672257568359376,0.14484715461730957,-0.981555163860321,1.0624924898147583
1729696948200027000,11.68202685546875,0.2828986346721649,-0.9638406038284302,0.995910108089447
1729696948209796400,11.69179638671875,0.43805384635925293,-0.13179029524326324,0.8920660614967346
1729696948219565600,11.701565673828124,0.6903337836265564,1.057529330253601,0.7491278052330017
1729696948229334800,11.711334716796875,0.9175689220428467,1.3653963804244995,0.5756471753120422
1729696948239104000,11.72110400390625,1.0788326263427734,1.7764965295791626,0.3423035442829132
1729696948248873200,11.730873291015625,1.2181057929992676,1.943868637084961,0.050929389894008636
1729696948258642400,11.740642333984376,1.3702067136764526,1.592631459236145,-0.2606027126312256
1729696948268412000,11.750411865234375,1.45939040184021,0.9604045748710632,-0.5067741274833679
1729696948278181000,11.76018115234375,1.4062467813491821,0.3721587061882019,-0.6387935280799866
1729696948287950300,11.769950439453124,1.2779687643051147,0.005650337319821119,-0.6565080881118774
1729696948297719600,11.779719482421875,1.1374739408493042,-0.13179029524326324,-0.4970006048679352
1729696948307488800,11.78948876953125,1.0061417818069458,-0.23632153868675232,-0.24838577210903168
1729696948317258000,11.799258056640625,0.8980218172073364,-0.3713187873363495,-0.04680617153644562
1729696948327027200,11.809027099609375,0.8125032186508179,-0.5417451858520508,0.05031854286789894
1729696948336796400,11.81879638671875,0.7337039113044739,-0.7836406826972961,0.05948125198483467
1729696948346566000,11.82856591796875,0.6231405735015869,-1.0945619344711304,0.0130568603053689
1729696948356335000,11.838335205078126,0.48692160844802856,-1.4195326566696167,-0.05047125369310379
1729696948366104300,11.848104248046875,0.32810133695602417,-1.699300765991211,-0.10605835169553757
1729696948375873500,11.85787353515625,0.15950748324394226,-1.911875605583191,-0.16408884525299072
1729696948385642800,11.867642822265625,-0.0035887276753783226,-1.9973942041397095,-0.25388339161872864
1729696948395412000,11.877411865234375,-0.12575818598270416,-1.9418070316314697,-0.3479538559913635
1729696948405181400,11.887181396484374,-0.26930728554725647,-1.9644083976745605,-0.4255314767360687
1729696948414950700,11.89695068359375,-0.45744824409484863,-1.9185948371887207,-0.44691112637519836
1729696948424720000,11.906719970703126,-0.6823163628578186,-1.8795006275177002,-0.4517979025840759
1729696948434489000,11.916489013671875,-0.8942803740501404,-1.8593426942825317,-0.4304182529449463
1729696948444258300,11.92625830078125,-1.0811996459960938,-1.8544559478759766,-0.4029301106929779
1729696948454027500,11.936027587890624,-1.2015365362167358,-1.7041875123977661,-0.39804333448410034
1729696948463796700,11.945796630859375,-1.2387982606887817,-1.1825239658355713,-0.45973891019821167
1729696948473566200,11.955566162109376,-1.1630531549453735,-0.5447993874549866,-0.5508314967155457
1729696948483335400,11.96533544921875,-0.8228112459182739,-0.4629458785057068,-0.3485647141933441
1729696948493104600,11.975104736328126,-0.2002815455198288,-0.33527877926826477,-0.1934095174074173
1729696948502873900,11.984873779296874,0.5192965269088745,1.186418056488037,-0.2819823622703552
1729696948512643000,11.99464306640625,1.1448041200637817,2.8730437755584717,-0.2868691384792328
1729696948522412300,12.004412353515624,1.488100290298462,3.119826078414917,-0.18485765159130096
1729696948532181500,12.014181396484375,1.3207281827926636,2.1937053203582764,-0.028480753302574158
1729696948541951000,12.023950927734376,0.9957574009895325,0.8956547975540161,0.07536327838897705
1729696948551720200,12.03372021484375,0.7599703669548035,-0.37620556354522705,0.026495499536395073
1729696948561489400,12.043489501953125,0.5712185502052307,-1.2069578170776367,-0.17447324097156525
1729696948571258600,12.053258544921874,0.3629196286201477,-1.4238085746765137,-0.491502970457077
1729696948581027800,12.06302783203125,0.09597937762737274,-1.112276554107666,-0.8263236284255981
1729696948590797000,12.072797119140626,-0.1471378356218338,-0.6553627252578735,-1.024238109588623
1729696948600566500,12.08256640625,-0.2656421959400177,-0.3474957346916199,-0.9533798694610596
1729696948610335700,12.092335693359376,-0.08910734206438065,-0.10796725004911423,-0.24899661540985107
