time,seconds_elapsed,z,y,x
1729696936590851000,0.07285107421875,-6.731250286102295,20.64375114440918,-50.23125076293945
1729696936600851000,0.082850830078125,-6.150000095367432,19.762500762939453,-50.55000305175781
1729696936610851000,0.09285107421875,-5.71875,19.125,-50.306251525878906
1729696936620851000,0.102850830078125,-5.4375,19.200000762939453,-50.70000076293945
1729696936630851000,0.11285107421875,-5.493750095367432,19.3125,-50.94375228881836
1729696936640851000,0.122850830078125,-5.362500190734863,19.14375114440918,-51.03750228881836
1729696936650851000,0.13285107421875,-5.400000095367432,19.05000114440918,-51.07500076293945
1729696936660851000,0.142850830078125,-5.212500095367432,18.918750762939453,-51.22500228881836
1729696936670851000,0.15285107421875,-4.650000095367432,18.693750381469727,-51.375003814697266
1729696936680851000,0.162850830078125,-4.612500190734863,18.825000762939453,-51.525001525878906
1729696936690851000,0.17285107421875,-4.59375,19.087501525878906,-51.843753814697266
1729696936700851000,0.182850830078125,-4.518750190734863,19.087501525878906,-51.76875305175781
1729696936710851000,0.19285107421875,-4.275000095367432,18.95625114440918,-51.750003814697266
1729696936720851000,0.202850830078125,-4.068750381469727,19.275001525878906,-51.750003814697266
1729696936730851000,0.21285107421875,-4.03125,19.40625,-51.843753814697266
1729696936740851000,0.222850830078125,-4.181250095367432,19.537500381469727,-51.806251525878906
1729696936750851000,0.23285107421875,-4.481250286102295,19.462501525878906,-51.712501525878906
1729696936760851000,0.242850830078125,-4.387500286102295,19.462501525878906,-51.806251525878906
1729696936770851000,0.25285107421875,-4.368750095367432,19.350000381469727,-51.656253814697266
1729696936780851000,0.262850830078125,-4.481250286102295,19.068750381469727,-51.468753814697266
1729696936790851000,0.27285107421875,-4.443750381469727,19.23750114440918,-51.468753814697266
1729696936800851000,0.282850830078125,-4.668750286102295,18.806251525878906,-51.39375305175781
1729696936810851000,0.29285107421875,-4.5,18.731250762939453,-51.281253814697266
1729696936820851000,0.302850830078125,-4.537500381469727,18.731250762939453,-51.093753814697266
1729696936830851000,0.31285107421875,-4.612500190734863,18.825000762939453,-51.056251525878906
1729696936840851000,0.322850830078125,-4.706250190734863,18.618751525878906,-50.587501525878906
1729696936850851000,0.33285107421875,-4.668750286102295,18.825000762939453,-50.70000076293945
1729696936860851000,0.342850830078125,-4.837500095367432,19.181251525878906,-50.812503814697266
1729696936870851000,0.35285107421875,-4.893750190734863,19.162500381469727,-50.85000228881836
1729696936880851000,0.362850830078125,-5.006250381469727,19.275001525878906,-50.88750076293945
1729696936890851000,0.37285107421875,-5.231250286102295,19.181251525878906,-50.98125076293945
1729696936900851000,0.382850830078125,-5.212500095367432,19.162500381469727,-51.03750228881836
1729696936910851000,0.39285107421875,-4.987500190734863,19.125,-51.22500228881836
1729696936920851000,0.402850830078125,-5.025000095367432,19.350000381469727,-51.431251525878906
1729696936930851000,0.41285107421875,-5.137500286102295,19.106250762939453,-51.618751525878906
1729696936940851000,0.422850830078125,-5.043750286102295,18.76875114440918,-51.525001525878906
1729696936950851000,0.43285107421875,-5.118750095367432,18.84375,-51.45000076293945
1729696936960851000,0.442850830078125,-4.912500381469727,18.881250381469727,-51.50625228881836
1729696936970851000,0.45285107421875,-4.950000286102295,18.993751525878906,-51.30000305175781
1729696936980851000,0.462850830078125,-5.0625,18.825000762939453,-51.431251525878906
1729696936990851000,0.47285107421875,-5.15625,18.825000762939453,-51.431251525878906
1729696937000851000,0.482850830078125,-4.987500190734863,18.75,-51.50625228881836
1729696937010851000,0.49285107421875,-4.96875,18.67500114440918,-51.03750228881836
1729696937020851000,0.502850830078125,-4.837500095367432,18.825000762939453,-51.000003814697266
1729696937030851000,0.51285107421875,-4.837500095367432,18.412500381469727,-51.03750228881836
1729696937040851000,0.522850830078125,-4.762500286102295,18.375,-51.01875305175781
1729696937050851000,0.53285107421875,-4.725000381469727,18.337501525878906,-51.056251525878906
1729696937060851000,0.542850830078125,-4.743750095367432,18.431251525878906,-50.79375076293945
1729696937070851000,0.55285107421875,-4.837500095367432,18.46875,-50.70000076293945
1729696937080851000,0.562850830078125,-4.912500381469727,18.356250762939453,-50.718753814697266
1729696937090851000,0.57285107421875,-4.875,18.431251525878906,-50.79375076293945
1729696937100851000,0.582850830078125,-4.818750381469727,18.46875,-51.13125228881836
1729696937110851000,0.59285107421875,-4.931250095367432,18.65625,-51.093753814697266
1729696937120851000,0.602850830078125,-5.043750286102295,18.825000762939453,-50.94375228881836
1729696937130851000,0.61285107421875,-4.931250095367432,18.75,-51.20625305175781
1729696937140851000,0.622850830078125,-4.612500190734863,18.84375,-51.45000076293945
1729696937150851000,0.63285107421875,-4.481250286102295,18.731250762939453,-51.562503814697266
1729696937160851000,0.642850830078125,-4.481250286102295,18.76875114440918,-51.468753814697266
1729696937170851000,0.65285107421875,-4.462500095367432,18.825000762939453,-51.48750305175781
1729696937180851000,0.662850830078125,-4.78125,18.693750381469727,-51.45000076293945
1729696937190851000,0.67285107421875,-4.762500286102295,18.5625,-51.281253814697266
1729696937200851000,0.682850830078125,-4.800000190734863,18.506250381469727,-51.39375305175781
1729696937210851000,0.69285107421875,-4.78125,18.506250381469727,-50.962501525878906
1729696937220851000,0.702850830078125,-5.006250381469727,18.5625,-51.03750228881836
1729696937230851000,0.71285107421875,-5.006250381469727,18.731250762939453,-50.718753814697266
1729696937240851000,0.722850830078125,-5.175000190734863,18.76875114440918,-50.51250076293945
1729696937250851000,0.73285107421875,-5.287500381469727,18.65625,-50.625003814697266
1729696937260851000,0.742850830078125,-5.081250190734863,18.787500381469727,-50.45625305175781
1729696937270851000,0.75285107421875,-4.96875,18.9375,-50.51250076293945
1729696937280851000,0.762850830078125,-4.931250095367432,18.84375,-50.51250076293945
1729696937290851000,0.77285107421875,-5.025000095367432,18.825000762939453,-50.681251525878906
1729696937300851000,0.782850830078125,-4.856250286102295,18.712501525878906,-50.343753814697266
1729696937310851000,0.79285107421875,-5.006250381469727,18.618751525878906,-50.587501525878906
1729696937320851000,0.802850830078125,-4.950000286102295,18.67500114440918,-50.681251525878906
1729696937330851000,0.81285107421875,-4.893750190734863,18.693750381469727,-50.47500228881836
1729696937340851000,0.822850830078125,-4.856250286102295,18.618751525878906,-50.47500228881836
1729696937350851000,0.83285107421875,-5.025000095367432,18.618751525878906,-50.51250076293945
1729696937360851000,0.842850830078125,-5.118750095367432,18.76875114440918,-50.36250305175781
1729696937370851000,0.85285107421875,-4.96875,18.637500762939453,-50.32500076293945
1729696937380851000,0.862850830078125,-5.193750381469727,18.67500114440918,-50.306251525878906
1729696937390851000,0.87285107421875,-5.268750190734863,18.67500114440918,-50.26875305175781
1729696937400851000,0.882850830078125,-5.212500095367432,18.693750381469727,-50.343753814697266
1729696937410851000,0.89285107421875,-5.006250381469727,18.75,-50.32500076293945
1729696937420851000,0.902850830078125,-5.043750286102295,18.76875114440918,-50.28750228881836
1729696937430851000,0.91285107421875,-5.118750095367432,18.637500762939453,-50.08125305175781
1729696937440851000,0.922850830078125,-5.15625,18.543750762939453,-50.13750076293945
1729696937450851000,0.93285107421875,-5.081250190734863,18.95625114440918,-50.062503814697266
1729696937460851000,0.942850830078125,-4.875,18.787500381469727,-50.156253814697266
1729696937470851000,0.95285107421875,-4.725000381469727,18.84375,-50.04375076293945
1729696937480851000,0.962850830078125,-4.59375,18.693750381469727,-50.10000228881836
1729696937490851000,0.97285107421875,-4.837500095367432,18.712501525878906,-50.343753814697266
1729696937500851000,0.982850830078125,-4.950000286102295,18.712501525878906,-50.51250076293945
1729696937510851000,0.99285107421875,-4.856250286102295,18.918750762939453,-50.812503814697266
1729696937520851000,1.002850830078125,-4.743750095367432,18.9375,-50.47500228881836
1729696937530851000,1.01285107421875,-4.743750095367432,18.65625,-50.51250076293945
1729696937540851000,1.022850830078125,-4.706250190734863,18.75,-50.45625305175781
1729696937550851000,1.03285107421875,-4.6875,18.787500381469727,-50.41875076293945
1729696937560851000,1.042850830078125,-4.762500286102295,18.712501525878906,-50.17500305175781
1729696937570851000,1.05285107421875,-4.837500095367432,18.731250762939453,-50.00625228881836
1729696937580851000,1.062850830078125,-4.78125,18.637500762939453,-49.85625076293945
1729696937590851000,1.07285107421875,-4.462500095367432,18.5625,-49.743751525878906
1729696937600851000,1.082850830078125,-4.481250286102295,18.48750114440918,-49.931251525878906
1729696937610851000,1.09285107421875,-4.612500190734863,18.450000762939453,-49.98750305175781
1729696937620851000,1.102850830078125,-4.443750381469727,18.48750114440918,-50.10000228881836
1729696937630851000,1.11285107421875,-4.387500286102295,18.1875,-50.08125305175781
1729696937640851000,1.122850830078125,-4.3125,18.30000114440918,-50.47500228881836
1729696937650851000,1.13285107421875,-4.143750190734863,18.243751525878906,-50.55000305175781
1729696937660851000,1.142850830078125,-3.9562501907348633,18.150001525878906,-50.681251525878906
1729696937670851000,1.15285107421875,-4.293750286102295,17.868751525878906,-50.718753814697266
1729696937680851000,1.162850830078125,-4.368750095367432,17.850000381469727,-50.79375076293945
1729696937690851000,1.17285107421875,-4.443750381469727,18,-50.681251525878906
1729696937700851000,1.182850830078125,-4.481250286102295,18.131250381469727,-50.531253814697266
1729696937710851000,1.19285107421875,-4.443750381469727,18.39375114440918,-50.587501525878906
1729696937720851000,1.202850830078125,-4.462500095367432,18.375,-50.156253814697266
1729696937730851000,1.21285107421875,-4.125,18.30000114440918,-50.19375228881836
1729696937740851000,1.222850830078125,-4.237500190734863,18.65625,-49.91250228881836
1729696937750851000,1.23285107421875,-4.181250095367432,18.993751525878906,-49.80000305175781
1729696937760851000,1.242850830078125,-4.200000286102295,19.106250762939453,-49.70625305175781
1729696937770851000,1.25285107421875,-3.825000047683716,18.975000381469727,-49.743751525878906
1729696937780851000,1.262850830078125,-3.9000000953674316,18.731250762939453,-49.66875076293945
1729696937790851000,1.27285107421875,-4.03125,18.600000381469727,-49.70625305175781
1729696937800851000,1.282850830078125,-4.087500095367432,18.58125114440918,-49.95000076293945
1729696937810851000,1.29285107421875,-4.443750381469727,18.600000381469727,-49.781253814697266
1729696937820851000,1.302850830078125,-4.706250190734863,18.450000762939453,-49.837501525878906
1729696937830851000,1.31285107421875,-4.931250095367432,18.431251525878906,-49.81875228881836
1729696937840851000,1.322850830078125,-4.668750286102295,18.506250381469727,-49.91250228881836
1729696937850851000,1.33285107421875,-5.0625,18.712501525878906,-49.91250228881836
1729696937860851000,1.342850830078125,-5.25,18.806251525878906,-49.968753814697266
1729696937870851000,1.35285107421875,-5.25,18.975000381469727,-49.837501525878906
1729696937880851000,1.362850830078125,-5.025000095367432,18.881250381469727,-49.743751525878906
1729696937890851000,1.37285107421875,-5.175000190734863,19.012500762939453,-49.931251525878906
1729696937900851000,1.382850830078125,-4.893750190734863,19.012500762939453,-50.118751525878906
1729696937910851000,1.39285107421875,-4.612500190734863,18.9375,-50.118751525878906
1729696937920851000,1.402850830078125,-4.818750381469727,18.84375,-50.00625228881836
1729696937930851000,1.41285107421875,-4.912500381469727,18.806251525878906,-50.26875305175781
1729696937940851000,1.422850830078125,-4.612500190734863,18.881250381469727,-50.250003814697266
1729696937950851000,1.43285107421875,-4.59375,18.67500114440918,-50.26875305175781
1729696937960851000,1.442850830078125,-4.912500381469727,18.48750114440918,-50.47500228881836
1729696937970851000,1.45285107421875,-4.668750286102295,18.318750381469727,-50.41875076293945
1729696937980851000,1.462850830078125,-4.612500190734863,18.1875,-50.32500076293945
1729696937990851000,1.47285107421875,-4.631250381469727,18.225000381469727,-50.437503814697266
1729696938000851000,1.482850830078125,-4.725000381469727,18.225000381469727,-50.718753814697266
1729696938010851000,1.49285107421875,-4.275000095367432,18.150001525878906,-50.531253814697266
1729696938020851000,1.502850830078125,-4.443750381469727,18.168750762939453,-50.64375305175781
1729696938030851000,1.51285107421875,-4.6875,18.075000762939453,-50.83125305175781
1729696938040851000,1.522850830078125,-4.6875,18.412500381469727,-50.60625076293945
1729696938050851000,1.53285107421875,-4.837500095367432,18.543750762939453,-50.531253814697266
1729696938060851000,1.542850830078125,-4.800000190734863,18.48750114440918,-50.306251525878906
1729696938070851000,1.55285107421875,-4.800000190734863,18.5625,-50.437503814697266
1729696938080851000,1.562850830078125,-4.6875,18.318750381469727,-50.587501525878906
1729696938090851000,1.57285107421875,-5.043750286102295,18.150001525878906,-50.38125228881836
1729696938100851000,1.582850830078125,-4.96875,18.131250381469727,-50.493751525878906
1729696938110851000,1.59285107421875,-4.6875,18.243751525878906,-50.41875076293945
1729696938120851000,1.602850830078125,-4.668750286102295,18.318750381469727,-50.625003814697266
1729696938130851000,1.61285107421875,-4.706250190734863,18.28125,-50.625003814697266
1729696938140851000,1.622850830078125,-4.875,18.356250762939453,-50.73750305175781
1729696938150851000,1.63285107421875,-4.893750190734863,18.131250381469727,-50.70000076293945
1729696938160851000,1.642850830078125,-4.818750381469727,18.337501525878906,-50.400001525878906
1729696938170851000,1.65285107421875,-4.6875,18.48750114440918,-50.56875228881836
1729696938180851000,1.662850830078125,-4.818750381469727,18.262500762939453,-50.51250076293945
1729696938190851000,1.67285107421875,-4.818750381469727,18.39375114440918,-50.51250076293945
1729696938200851000,1.682850830078125,-4.800000190734863,18.412500381469727,-50.587501525878906
1729696938210851000,1.69285107421875,-4.668750286102295,18.412500381469727,-50.718753814697266
1729696938220851000,1.702850830078125,-4.462500095367432,18.20625114440918,-50.85000228881836
1729696938230851000,1.71285107421875,-4.462500095367432,18.20625114440918,-50.98125076293945
1729696938240851000,1.722850830078125,-4.331250190734863,18.01875114440918,-51.22500228881836
1729696938250851000,1.73285107421875,-4.21875,18,-51.26250076293945
1729696938260851000,1.742850830078125,-4.143750190734863,18.20625114440918,-50.98125076293945
1729696938270851000,1.75285107421875,-3.9562501907348633,18.262500762939453,-50.775001525878906
1729696938280851000,1.762850830078125,-3.3937501907348633,18.30000114440918,-50.55000305175781
1729696938290851000,1.77285107421875,-2.15625,18.600000381469727,-50.437503814697266
1729696938300851000,1.782850830078125,-0.48750001192092896,19.012500762939453,-50.28750228881836
1729696938310851000,1.79285107421875,1.9312500953674316,19.59375,-49.556251525878906
1729696938320851000,1.802850830078125,4.575000286102295,19.875,-48.375003814697266
1729696938330851000,1.81285107421875,7.893750190734863,19.875,-46.80000305175781
1729696938340851000,1.822850830078125,11.606250762939453,19.650001525878906,-44.53125
1729696938350851000,1.83285107421875,15.206250190734863,19.125,-41.32500076293945
1729696938360851000,1.842850830078125,18.39375114440918,18.243751525878906,-37.23750305175781
1729696938370851000,1.85285107421875,20.64375114440918,17.493751525878906,-32.45625305175781
1729696938380851000,1.862850830078125,21.806251525878906,16.78125,-27.356250762939453
1729696938390851000,1.87285107421875,21.825000762939453,15.750000953674316,-21.900001525878906
1729696938400851000,1.882850830078125,21.056251525878906,15.281250953674316,-16.3125
1729696938410851000,1.89285107421875,19.256250381469727,14.86875057220459,-10.96875
1729696938420851000,1.902850830078125,16.59375,14.943750381469727,-6.393750190734863
1729696938430851000,1.91285107421875,13.55625057220459,15.281250953674316,-2.6812500953674316
1729696938440851000,1.922850830078125,10.256250381469727,16.293750762939453,0.4312500059604645
1729696938450851000,1.93285107421875,6.768750190734863,17.0625,2.9625000953674316
1729696938460851000,1.942850830078125,3.4125001430511475,17.962501525878906,4.875
1729696938470851000,1.95285107421875,0.22500000894069672,18.918750762939453,6.168750286102295
1729696938480851000,1.962850830078125,-2.9250001907348633,19.725000381469727,6.656250476837158
1729696938490851000,1.97285107421875,-5.943750381469727,20.4375,6.712500095367432
1729696938500851000,1.982850830078125,-8.418750762939453,20.850000381469727,6.637500286102295
1729696938510851000,1.99285107421875,-10.706250190734863,21.58125114440918,6.600000381469727
1729696938520851000,2.002850830078125,-12.731250762939453,21.86250114440918,6.337500095367432
1729696938530851000,2.01285107421875,-14.362500190734863,22.012500762939453,5.943750381469727
1729696938540851000,2.022850830078125,-15.881250381469727,22.33125114440918,5.831250190734863
1729696938550851000,2.03285107421875,-17.231250762939453,22.61250114440918,5.568750381469727
1729696938560851000,2.042850830078125,-18.243751525878906,22.631250381469727,5.400000095367432
1729696938570851000,2.05285107421875,-19.14375114440918,22.931251525878906,5.475000381469727
1729696938580851000,2.062850830078125,-19.762500762939453,22.931251525878906,5.4375
1729696938590851000,2.07285107421875,-20.71875,22.875,5.4375
1729696938600851000,2.082850830078125,-21.693750381469727,22.668750762939453,5.512500286102295
1729696938610851000,2.09285107421875,-22.856250762939453,22.481250762939453,5.550000190734863
1729696938620851000,2.102850830078125,-23.73750114440918,22.106250762939453,5.381250381469727
1729696938630851000,2.11285107421875,-24.356250762939453,21.731250762939453,5.118750095367432
1729696938640851000,2.122850830078125,-25.068750381469727,21.5625,4.875
1729696938650851000,2.13285107421875,-25.687501907348633,21.150001525878906,4.5
1729696938660851000,2.142850830078125,-26.775001525878906,21.225000381469727,4.106250286102295
1729696938670851000,2.15285107421875,-27.656251907348633,20.775001525878906,3.543750047683716
1729696938680851000,2.162850830078125,-28.031251907348633,20.306251525878906,3.093750238418579
1729696938690851000,2.17285107421875,-28.593751907348633,20.100000381469727,2.53125
1729696938700851000,2.182850830078125,-29.043750762939453,19.856250762939453,2.15625
1729696938710851000,2.19285107421875,-29.418750762939453,19.59375,1.6687500476837158
1729696938720851000,2.202850830078125,-29.981250762939453,19.59375,1.3687500953674316
1729696938730851000,2.21285107421875,-30.562501907348633,19.462501525878906,0.65625
1729696938740851000,2.222850830078125,-30.918750762939453,19.087501525878906,0.4312500059604645
1729696938750851000,2.23285107421875,-30.993751525878906,18.787500381469727,-0.1875
1729696938760851000,2.242850830078125,-31.500001907348633,18.712501525878906,-0.768750011920929
1729696938770851000,2.25285107421875,-31.42500114440918,18.731250762939453,-0.9375000596046448
1729696938780851000,2.262850830078125,-31.912500381469727,18.637500762939453,-1.350000023841858
1729696938790851000,2.27285107421875,-32.28750228881836,18.65625,-1.2937500476837158
1729696938800851000,2.282850830078125,-32.38125228881836,18.318750381469727,-1.443750023841858
1729696938810851000,2.29285107421875,-32.51250076293945,18.356250762939453,-1.350000023841858
1729696938820851000,2.302850830078125,-32.71875,18.30000114440918,-1.4812500476837158
1729696938830851000,2.31285107421875,-32.88750076293945,18.450000762939453,-1.125
1729696938840851000,2.322850830078125,-32.94375228881836,18.600000381469727,-0.8812500238418579
1729696938850851000,2.33285107421875,-33.31875228881836,18.225000381469727,-1.03125
1729696938860851000,2.342850830078125,-33.26250076293945,18.318750381469727,-0.9375000596046448
1729696938870851000,2.35285107421875,-33.26250076293945,18.225000381469727,-1.03125
1729696938880851000,2.362850830078125,-33.46875,18.375,-1.1062500476837158
1729696938890851000,2.37285107421875,-33.525001525878906,18.1875,-0.9750000238418579
1729696938900851000,2.382850830078125,-33.65625,18.337501525878906,-1.03125
1729696938910851000,2.39285107421875,-33.48750305175781,18.337501525878906,-1.125
1729696938920851000,2.402850830078125,-33.5625,18.543750762939453,-1.0125000476837158
1729696938930851000,2.41285107421875,-33.65625,18.95625114440918,-0.8437500596046448
1729696938940851000,2.422850830078125,-33.67500305175781,18.993751525878906,-0.7875000238418579
1729696938950851000,2.43285107421875,-33.993751525878906,19.087501525878906,-0.6187500357627869
1729696938960851000,2.442850830078125,-34.275001525878906,18.95625114440918,-0.39375001192092896
1729696938970851000,2.45285107421875,-34.48125076293945,19.14375114440918,-0.5437500476837158
1729696938980851000,2.462850830078125,-34.59375,19.14375114440918,-0.375
1729696938990851000,2.47285107421875,-35.00625228881836,19.23750114440918,-0.07500000298023224
1729696939000851000,2.482850830078125,-35.212501525878906,18.881250381469727,-0.11250000447034836
1729696939010851000,2.49285107421875,-35.493751525878906,18.58125114440918,-0.20625001192092896
1729696939020851000,2.502850830078125,-35.98125076293945,18.30000114440918,-0.26250001788139343
1729696939030851000,2.51285107421875,-36.337501525878906,17.887500762939453,-0.30000001192092896
1729696939040851000,2.522850830078125,-36.5625,17.625,-0.28125
1729696939050851000,2.53285107421875,-36.86250305175781,17.137500762939453,-0.15000000596046448
1729696939060851000,2.542850830078125,-36.95625305175781,16.668750762939453,-0.13125000894069672
1729696939070851000,2.55285107421875,-37.57500076293945,15.975000381469727,-0.6187500357627869
1729696939080851000,2.562850830078125,-38.212501525878906,15.543750762939453,-0.8437500596046448
1729696939090851000,2.57285107421875,-38.625,15.112500190734863,-1.0875000953674316
1729696939100851000,2.582850830078125,-38.94375228881836,14.568750381469727,-1.537500023841858
1729696939110851000,2.59285107421875,-39.31875228881836,14.175000190734863,-1.9687501192092896
1729696939120851000,2.602850830078125,-39.712501525878906,13.537500381469727,-2.700000047683716
1729696939130851000,2.61285107421875,-40.14375305175781,12.937500953674316,-3.2437500953674316
1729696939140851000,2.622850830078125,-40.743751525878906,12.262500762939453,-3.9750001430511475
1729696939150851000,2.63285107421875,-41.19375228881836,11.68125057220459,-4.425000190734863
1729696939160851000,2.642850830078125,-41.70000076293945,10.631250381469727,-5.15625
1729696939170851000,2.65285107421875,-42.243751525878906,9.581250190734863,-5.681250095367432
1729696939180851000,2.662850830078125,-42.48750305175781,8.756250381469727,-6.150000095367432
1729696939190851000,2.67285107421875,-42.84375,7.950000286102295,-6.750000476837158
1729696939200851000,2.682850830078125,-43.21875,7.106250286102295,-7.181250095367432
1729696939210851000,2.69285107421875,-43.40625,6.562500476837158,-7.762500286102295
1729696939220851000,2.702850830078125,-43.875,5.643750190734863,-8.231250762939453
1729696939230851000,2.71285107421875,-43.80000305175781,4.950000286102295,-8.625
1729696939240851000,2.722850830078125,-43.66875076293945,4.59375,-8.96250057220459
1729696939250851000,2.73285107421875,-43.81875228881836,4.068750381469727,-9.24375057220459
1729696939260851000,2.742850830078125,-44.118751525878906,3.3937501907348633,-9.543750762939453
1729696939270851000,2.75285107421875,-44.118751525878906,2.90625,-9.90000057220459
1729696939280851000,2.762850830078125,-44.15625,2.2875001430511475,-10.21875
1729696939290851000,2.77285107421875,-44.45625305175781,1.6687500476837158,-10.537500381469727
1729696939300851000,2.782850830078125,-44.26875305175781,1.5187500715255737,-10.818750381469727
1729696939310851000,2.79285107421875,-44.587501525878906,1.21875,-11.325000762939453
1729696939320851000,2.802850830078125,-44.79375076293945,0.956250011920929,-11.643750190734863
1729696939330851000,2.81285107421875,-44.587501525878906,0.5625,-11.662500381469727
1729696939340851000,2.822850830078125,-44.51250076293945,0.5250000357627869,-11.850000381469727
1729696939350851000,2.83285107421875,-44.66250228881836,0.22500000894069672,-12.037500381469727
1729696939360851000,2.842850830078125,-44.70000076293945,0.26250001788139343,-11.887500762939453
1729696939370851000,2.85285107421875,-44.681251525878906,0.15000000596046448,-11.850000381469727
1729696939380851000,2.862850830078125,-44.79375076293945,-0.07500000298023224,-11.943750381469727
1729696939390851000,2.87285107421875,-44.775001525878906,-0.35625001788139343,-11.68125057220459
1729696939400851000,2.882850830078125,-44.868751525878906,-0.48750001192092896,-11.53125
1729696939410851000,2.89285107421875,-45.16875076293945,-0.4125000238418579,-11.86875057220459
1729696939420851000,2.902850830078125,-45.431251525878906,-0.65625,-12.018750190734863
1729696939430851000,2.91285107421875,-45.54375076293945,-0.8250000476837158,-11.887500762939453
1729696939440851000,2.922850830078125,-45.75,-1.0875000953674316,-12.262500762939453
1729696939450851000,2.93285107421875,-45.84375,-1.256250023841858,-12.225000381469727
1729696939460851000,2.942850830078125,-46.05000305175781,-1.350000023841858,-12.187500953674316
1729696939470851000,2.95285107421875,-46.29375076293945,-1.350000023841858,-12.15000057220459
1729696939480851000,2.962850830078125,-46.3125,-1.5937501192092896,-12.225000381469727
1729696939490851000,2.97285107421875,-46.33125305175781,-1.6875001192092896,-12.093750953674316
1729696939500851000,2.982850830078125,-46.368751525878906,-1.6875001192092896,-11.850000381469727
1729696939510851000,2.99285107421875,-46.16250228881836,-1.7625000476837158,-12.018750190734863
1729696939520851000,3.002850830078125,-45.95625305175781,-1.6687500476837158,-11.850000381469727
1729696939530851000,3.01285107421875,-45.84375,-1.8937500715255737,-11.925000190734863
1729696939540851000,3.022850830078125,-45.78750228881836,-2.1937501430511475,-11.8125
1729696939550851000,3.03285107421875,-45.69375228881836,-2.3812501430511475,-11.756250381469727
1729696939560851000,3.042850830078125,-45.63750076293945,-2.4750001430511475,-11.643750190734863
1729696939570851000,3.05285107421875,-45.63750076293945,-2.5687501430511475,-11.606250762939453
1729696939580851000,3.062850830078125,-45.50625228881836,-2.625,-11.568750381469727
1729696939590851000,3.07285107421875,-45.63750076293945,-2.71875,-11.475000381469727
1729696939600851000,3.082850830078125,-45.88125228881836,-3.075000047683716,-11.34375
1729696939610851000,3.09285107421875,-45.88125228881836,-3.1312501430511475,-11.287500381469727
1729696939620851000,3.102850830078125,-46.181251525878906,-3.093750238418579,-11.30625057220459
1729696939630851000,3.11285107421875,-46.181251525878906,-3.1312501430511475,-11.21250057220459
1729696939640851000,3.122850830078125,-46.21875,-3.2250001430511475,-11.0625
1729696939650851000,3.13285107421875,-45.95625305175781,-3.1500000953674316,-10.893750190734863
1729696939660851000,3.142850830078125,-45.97500228881836,-3.356250047683716,-10.631250381469727
1729696939670851000,3.15285107421875,-46.181251525878906,-3.356250047683716,-10.27500057220459
1729696939680851000,3.162850830078125,-46.01250076293945,-3.1500000953674316,-10.18125057220459
1729696939690851000,3.17285107421875,-46.14375305175781,-3.281250238418579,-9.768750190734863
1729696939700851000,3.182850830078125,-45.712501525878906,-3.281250238418579,-9.543750762939453
1729696939710851000,3.19285107421875,-45.618751525878906,-3.2437500953674316,-9.28125
1729696939720851000,3.202850830078125,-45.60000228881836,-3.1500000953674316,-9.09375
1729696939730851000,3.21285107421875,-45.67500305175781,-3.1500000953674316,-8.756250381469727
1729696939740851000,3.222850830078125,-45.58125305175781,-2.887500047683716,-8.287500381469727
1729696939750851000,3.23285107421875,-45.54375076293945,-2.700000047683716,-7.743750095367432
1729696939760851000,3.242850830078125,-45.54375076293945,-2.5687501430511475,-6.787500381469727
1729696939770851000,3.25285107421875,-45.50625228881836,-2.137500047683716,-5.793750286102295
1729696939780851000,3.262850830078125,-45.28125,-1.4812500476837158,-4.331250190734863
1729696939790851000,3.27285107421875,-45.26250076293945,-0.7125000357627869,-2.7750000953674316
1729696939800851000,3.282850830078125,-44.98125076293945,0.675000011920929,-0.6000000238418579
1729696939810851000,3.29285107421875,-44.306251525878906,2.043750047683716,1.5937501192092896
1729696939820851000,3.302850830078125,-43.44375228881836,3.8625001907348633,3.9000000953674316
1729696939830851000,3.31285107421875,-42.375,5.662500381469727,6.150000095367432
1729696939840851000,3.322850830078125,-41.28750228881836,7.556250095367432,8.081250190734863
1729696939850851000,3.33285107421875,-39.86250305175781,9.787500381469727,10.27500057220459
1729696939860851000,3.342850830078125,-38.45625305175781,11.831250190734863,12.262500762939453
1729696939870851000,3.35285107421875,-36.01875305175781,14.02500057220459,14.193750381469727
1729696939880851000,3.362850830078125,-33.46875,15.937500953674316,15.918750762939453
1729696939890851000,3.37285107421875,-31.125001907348633,17.55000114440918,17.793750762939453
1729696939900851000,3.382850830078125,-28.406251907348633,18.806251525878906,19.125
1729696939910851000,3.39285107421875,-25.631250381469727,20.53125,20.73750114440918
1729696939920851000,3.402850830078125,-22.5,22.106250762939453,22.181251525878906
1729696939930851000,3.41285107421875,-19.162500381469727,23.34375,23.212501525878906
1729696939940851000,3.422850830078125,-16.068750381469727,24.506250381469727,23.943750381469727
1729696939950851000,3.43285107421875,-13.200000762939453,25.687501907348633,24.806251525878906
1729696939960851000,3.442850830078125,-10.55625057220459,26.756250381469727,24.993751525878906
1729696939970851000,3.45285107421875,-7.950000286102295,27.95625114440918,24.825000762939453
1729696939980851000,3.462850830078125,-5.700000286102295,29.212501525878906,24.58125114440918
1729696939990851000,3.47285107421875,-3.3375000953674316,29.943750381469727,24.356250762939453
1729696940000851000,3.482850830078125,-1.2750000953674316,30.900001525878906,24.318750381469727
1729696940010851000,3.49285107421875,0.4125000238418579,32.10000228881836,24.131250381469727
1729696940020851000,3.502850830078125,2.0250000953674316,33.26250076293945,24.037500381469727
1729696940030851000,3.51285107421875,3.4875001907348633,34.35000228881836,24.01875114440918
1729696940040851000,3.522850830078125,4.987500190734863,35.53125,24.225000381469727
1729696940050851000,3.53285107421875,6.356250286102295,37.03125,24.543750762939453
1729696940060851000,3.542850830078125,7.762500286102295,38.85000228881836,25.500001907348633
1729696940070851000,3.55285107421875,9.168750762939453,40.837501525878906,26.475000381469727
1729696940080851000,3.562850830078125,10.59375,42.95625305175781,27.637500762939453
1729696940090851000,3.57285107421875,12.281250953674316,44.64375305175781,29.193750381469727
1729696940100851000,3.582850830078125,14.21250057220459,46.10625076293945,31.200000762939453
1729696940110851000,3.59285107421875,16.087501525878906,47.23125076293945,32.8125
1729696940120851000,3.602850830078125,18.11250114440918,48.093753814697266,34.650001525878906
1729696940130851000,3.61285107421875,20.118751525878906,48.54375076293945,36.712501525878906
1729696940140851000,3.622850830078125,21.787500381469727,48.22500228881836,38.36250305175781
1729696940150851000,3.63285107421875,23.100000381469727,47.493751525878906,39.78750228881836
1729696940160851000,3.642850830078125,24.39375114440918,45.900001525878906,40.81875228881836
1729696940170851000,3.65285107421875,25.256250381469727,44.45625305175781,41.51250076293945
1729696940180851000,3.662850830078125,25.593751907348633,42.9375,41.868751525878906
1729696940190851000,3.67285107421875,25.762500762939453,41.04375076293945,42.11250305175781
1729696940200851000,3.682850830078125,25.875001907348633,38.88750076293945,42.22500228881836
1729696940210851000,3.69285107421875,25.650001525878906,36.78750228881836,41.79375076293945
1729696940220851000,3.702850830078125,25.42500114440918,34.462501525878906,41.25
1729696940230851000,3.71285107421875,25.218751907348633,32.118751525878906,40.57500076293945
1729696940240851000,3.722850830078125,24.975000381469727,30.337501525878906,39.91875076293945
1729696940250851000,3.73285107421875,24.618751525878906,28.575000762939453,39.35625076293945
1729696940260851000,3.742850830078125,24.468751907348633,26.681251525878906,38.71875
1729696940270851000,3.75285107421875,24.375001907348633,25.068750381469727,38.00625228881836
1729696940280851000,3.762850830078125,24.037500381469727,23.71875,37.40625
1729696940290851000,3.77285107421875,24.11250114440918,22.256250381469727,36.91875076293945
1729696940300851000,3.782850830078125,24.056251525878906,21.1875,36.78750228881836
1729696940310851000,3.79285107421875,24.131250381469727,20.4375,36.60000228881836
1729696940320851000,3.802850830078125,24.037500381469727,19.556251525878906,36.618751525878906
1729696940330851000,3.81285107421875,23.962501525878906,18.318750381469727,36.618751525878906
1729696940340851000,3.822850830078125,23.775001525878906,17.100000381469727,36.82500076293945
1729696940350851000,3.83285107421875,23.45625114440918,15.937500953674316,37.23750305175781
1729696940360851000,3.842850830078125,23.137500762939453,14.606250762939453,37.650001525878906
1729696940370851000,3.85285107421875,22.462501525878906,13.46250057220459,38.28750228881836
1729696940380851000,3.862850830078125,21.918750762939453,12.543750762939453,38.75625228881836
1729696940390851000,3.87285107421875,21.150001525878906,11.381250381469727,39.48750305175781
1729696940400851000,3.882850830078125,20.08125114440918,10.3125,39.900001525878906
1729696940410851000,3.89285107421875,19.40625,9.61875057220459,40.59375
1729696940420851000,3.902850830078125,18.450000762939453,9.168750762939453,41.13750076293945
1729696940430851000,3.91285107421875,17.587501525878906,8.71875,41.56875228881836
1729696940440851000,3.922850830078125,16.481250762939453,8.8125,42
1729696940450851000,3.93285107421875,15.43125057220459,9,42.35625076293945
1729696940460851000,3.942850830078125,14.418750762939453,9.037500381469727,42.5625
1729696940470851000,3.95285107421875,13.668750762939453,9.28125,42.86250305175781
1729696940480851000,3.962850830078125,13.293750762939453,9.487500190734863,43.5
1729696940490851000,3.97285107421875,12.262500762939453,9.787500381469727,43.48125076293945
1729696940500851000,3.982850830078125,11.662500381469727,10.106250762939453,43.5
1729696940510851000,3.99285107421875,10.987500190734863,10.5,43.78125
1729696940520851000,4.002850830078125,10.425000190734863,10.74375057220459,43.91250228881836
1729696940530851000,4.01285107421875,9.80625057220459,10.668750762939453,44.10000228881836
1729696940540851000,4.022850830078125,9.225000381469727,10.706250190734863,44.32500076293945
1729696940550851000,4.03285107421875,8.550000190734863,10.800000190734863,44.47500228881836
1729696940560851000,4.042850830078125,7.425000190734863,10.612500190734863,44.51250076293945
1729696940570851000,4.05285107421875,6.543750286102295,10.481250762939453,44.94375228881836
1729696940580851000,4.062850830078125,5.568750381469727,10.46250057220459,45.07500076293945
1729696940590851000,4.07285107421875,4.425000190734863,10.55625057220459,45.11250305175781
1729696940600851000,4.082850830078125,2.793750047683716,10.668750762939453,44.962501525878906
1729696940610851000,4.09285107421875,1.7812501192092896,10.856250762939453,45.01875305175781
1729696940620851000,4.102850830078125,0.8250000476837158,11.0625,44.71875
1729696940630851000,4.11285107421875,-0.07500000298023224,11.30625057220459,44.400001525878906
1729696940640851000,4.122850830078125,-0.8250000476837158,11.625,44.32500076293945
1729696940650851000,4.13285107421875,-1.3687500953674316,11.77500057220459,44.04375076293945
1729696940660851000,4.142850830078125,-1.8000000715255737,11.887500762939453,44.118751525878906
1729696940670851000,4.15285107421875,-1.9500000476837158,11.756250381469727,43.76250076293945
1729696940680851000,4.162850830078125,-1.5187500715255737,11.512500762939453,43.931251525878906
1729696940690851000,4.17285107421875,-1.4812500476837158,11.4375,43.78125
1729696940700851000,4.182850830078125,-1.5187500715255737,11.34375,43.91250228881836
1729696940710851000,4.19285107421875,-1.3312500715255737,11.231250762939453,44.19375228881836
1729696940720851000,4.202850830078125,-1.068750023841858,11.475000381469727,44.118751525878906
1729696940730851000,4.21285107421875,-0.7875000238418579,11.662500381469727,44.13750076293945
1729696940740851000,4.222850830078125,-0.65625,11.86875057220459,44.0625
1729696940750851000,4.23285107421875,-0.30000001192092896,12.412500381469727,43.98750305175781
1729696940760851000,4.242850830078125,0.07500000298023224,12.52500057220459,43.743751525878906
1729696940770851000,4.25285107421875,0.39375001192092896,12.956250190734863,43.53750228881836
1729696940780851000,4.262850830078125,1.0500000715255737,13.125000953674316,43.44375228881836
1729696940790851000,4.27285107421875,1.6687500476837158,13.425000190734863,42.78750228881836
1729696940800851000,4.282850830078125,2.512500047683716,13.631250381469727,42.22500228881836
1729696940810851000,4.29285107421875,3.5250000953674316,13.762500762939453,41.73750305175781
1729696940820851000,4.302850830078125,4.800000190734863,14.175000190734863,40.837501525878906
1729696940830851000,4.31285107421875,5.568750381469727,14.325000762939453,40.06875228881836
1729696940840851000,4.322850830078125,6.318750381469727,14.812500953674316,39.11250305175781
1729696940850851000,4.33285107421875,7.481250286102295,14.77500057220459,38.08125305175781
1729696940860851000,4.342850830078125,8.193750381469727,15.112500190734863,37.23750305175781
1729696940870851000,4.35285107421875,8.71875,15.468750953674316,36.525001525878906
1729696940880851000,4.362850830078125,9.262500762939453,15.787500381469727,35.85000228881836
1729696940890851000,4.37285107421875,9.65625,16.125,34.98750305175781
1729696940900851000,4.382850830078125,9.581250190734863,16.068750381469727,34.53750228881836
1729696940910851000,4.39285107421875,9.543750762939453,16.293750762939453,34.181251525878906
1729696940920851000,4.402850830078125,9.600000381469727,16.42500114440918,33.86250305175781
1729696940930851000,4.41285107421875,9.24375057220459,16.70625114440918,33.65625
1729696940940851000,4.422850830078125,9.168750762939453,16.6875,33.11250305175781
1729696940950851000,4.43285107421875,8.90625,16.33125114440918,32.66250228881836
1729696940960851000,4.442850830078125,8.700000762939453,15.90000057220459,32.10000228881836
1729696940970851000,4.45285107421875,8.15625,15.637500762939453,31.443750381469727
1729696940980851000,4.462850830078125,8.081250190734863,15.33750057220459,31.05000114440918
1729696940990851000,4.47285107421875,8.193750381469727,14.981250762939453,30.693750381469727
1729696941000851000,4.482850830078125,8.268750190734863,14.49375057220459,30.281251907348633
1729696941010851000,4.49285107421875,8.175000190734863,13.987500190734863,29.793750762939453
1729696941020851000,4.502850830078125,8.0625,13.612500190734863,29.512500762939453
1729696941030851000,4.51285107421875,8.21250057220459,13.406250953674316,29.156251907348633
1729696941040851000,4.522850830078125,8.100000381469727,13.031250953674316,28.968751907348633
1729696941050851000,4.53285107421875,8.25,12.61875057220459,28.950000762939453
1729696941060851000,4.542850830078125,8.34375,12.225000381469727,28.51875114440918
1729696941070851000,4.55285107421875,8.643750190734863,11.831250190734863,28.275001525878906
1729696941080851000,4.562850830078125,9.037500381469727,11.700000762939453,27.975000381469727
1729696941090851000,4.57285107421875,9.487500190734863,11.625,27.825000762939453
1729696941100851000,4.582850830078125,10.08750057220459,11.568750381469727,27.506250381469727
1729696941110851000,4.59285107421875,10.65000057220459,11.662500381469727,27.337501525878906
1729696941120851000,4.602850830078125,11.081250190734863,11.643750190734863,27.000001907348633
1729696941130851000,4.61285107421875,11.512500762939453,11.756250381469727,26.606250762939453
1729696941140851000,4.622850830078125,11.793750762939453,11.86875057220459,26.437501907348633
1729696941150851000,4.63285107421875,11.90625,11.86875057220459,25.931251525878906
1729696941160851000,4.642850830078125,12.037500381469727,11.700000762939453,25.312501907348633
1729696941170851000,4.65285107421875,12.281250953674316,11.49375057220459,24.600000381469727
1729696941180851000,4.662850830078125,12.075000762939453,11.25,23.64375114440918
1729696941190851000,4.67285107421875,11.77500057220459,11.006250381469727,22.387500762939453
1729696941200851000,4.682850830078125,12.037500381469727,10.912500381469727,21.168750762939453
1729696941210851000,4.69285107421875,12.168750762939453,10.575000762939453,19.743751525878906
1729696941220851000,4.702850830078125,12.562500953674316,10.668750762939453,18.075000762939453
1729696941230851000,4.71285107421875,12.80625057220459,11.11875057220459,16.3125
1729696941240851000,4.722850830078125,13.200000762939453,11.68125057220459,14.550000190734863
1729696941250851000,4.73285107421875,13.55625057220459,12.318750381469727,12.768750190734863
1729696941260851000,4.742850830078125,14.268750190734863,13.18125057220459,10.912500381469727
1729696941270851000,4.75285107421875,14.981250762939453,14.250000953674316,9.412500381469727
1729696941280851000,4.762850830078125,15.600000381469727,15.356250762939453,7.781250476837158
1729696941290851000,4.77285107421875,16.181251525878906,16.668750762939453,6
1729696941300851000,4.782850830078125,16.350000381469727,17.606250762939453,4.40625
1729696941310851000,4.79285107421875,16.6875,18.1875,2.9625000953674316
1729696941320851000,4.802850830078125,16.762500762939453,19.125,1.7625000476837158
1729696941330851000,4.81285107421875,16.575000762939453,19.80000114440918,0.03750000149011612
1729696941340851000,4.822850830078125,16.387500762939453,20.475000381469727,-1.2750000953674316
1729696941350851000,4.83285107421875,16.42500114440918,20.681251525878906,-3.0187501907348633
1729696941360851000,4.842850830078125,15.656250953674316,21.225000381469727,-4.837500095367432
1729696941370851000,4.85285107421875,15.075000762939453,21.58125114440918,-6.450000286102295
1729696941380851000,4.862850830078125,14.643750190734863,22.087501525878906,-8.325000762939453
1729696941390851000,4.87285107421875,14.137500762939453,22.575000762939453,-9.9375
1729696941400851000,4.882850830078125,13.687500953674316,22.837501525878906,-11.981250762939453
1729696941410851000,4.89285107421875,13.36875057220459,23.4375,-13.74375057220459
1729696941420851000,4.902850830078125,12.825000762939453,23.962501525878906,-15.33750057220459
1729696941430851000,4.91285107421875,12.318750381469727,24.787500381469727,-16.78125
1729696941440851000,4.922850830078125,12.43125057220459,25.387500762939453,-18.037500381469727
1729696941450851000,4.93285107421875,12.543750762939453,26.212501525878906,-19.293750762939453
1729696941460851000,4.942850830078125,12.731250762939453,26.92500114440918,-20.681251525878906
1729696941470851000,4.95285107421875,12.918750762939453,27.806251525878906,-22.275001525878906
1729696941480851000,4.962850830078125,13.218750953674316,28.837501525878906,-23.34375
1729696941490851000,4.97285107421875,13.912500381469727,29.662500381469727,-24.450000762939453
1729696941500851000,4.982850830078125,14.662500381469727,30.318750381469727,-25.668750762939453
1729696941510851000,4.99285107421875,14.981250762939453,31.012500762939453,-26.850000381469727
1729696941520851000,5.002850830078125,15.750000953674316,31.80000114440918,-27.712501525878906
1729696941530851000,5.01285107421875,16.106250762939453,32.493751525878906,-28.668750762939453
1729696941540851000,5.022850830078125,16.70625114440918,33.28125,-29.45625114440918
1729696941550851000,5.03285107421875,17.0625,34.087501525878906,-29.981250762939453
1729696941560851000,5.042850830078125,17.100000381469727,34.53750228881836,-31.106250762939453
1729696941570851000,5.05285107421875,16.61250114440918,35.493751525878906,-31.98750114440918
1729696941580851000,5.062850830078125,15.71250057220459,36.431251525878906,-32.70000076293945
1729696941590851000,5.07285107421875,14.812500953674316,37.35000228881836,-33.58125305175781
1729696941600851000,5.082850830078125,12.750000953674316,38.025001525878906,-35.13750076293945
1729696941610851000,5.09285107421875,10.912500381469727,38.70000076293945,-36.618751525878906
1729696941620851000,5.102850830078125,9.018750190734863,39.03750228881836,-37.837501525878906
1729696941630851000,5.11285107421875,7.293750286102295,39.54375076293945,-39.65625
1729696941640851000,5.122850830078125,5.756250381469727,40.181251525878906,-41.28750228881836
1729696941650851000,5.13285107421875,4.200000286102295,40.16250228881836,-43.01250076293945
1729696941660851000,5.142850830078125,3.5812501907348633,40.38750076293945,-45.13125228881836
1729696941670851000,5.15285107421875,3.1125001907348633,40.38750076293945,-47.10000228881836
1729696941680851000,5.162850830078125,3.375000238418579,40.61250305175781,-48.67500305175781
1729696941690851000,5.17285107421875,3.8812501430511475,40.98750305175781,-50.17500305175781
1729696941700851000,5.182850830078125,4.40625,41.53125,-51.58125305175781
1729696941710851000,5.19285107421875,5.175000190734863,41.8125,-52.61250305175781
1729696941720851000,5.202850830078125,5.981250286102295,42.03750228881836,-53.56875228881836
1729696941730851000,5.21285107421875,7.350000381469727,42.46875,-54.60000228881836
1729696941740851000,5.222850830078125,8.49375057220459,42.5625,-55.23750305175781
1729696941750851000,5.23285107421875,9.9375,42.65625,-55.51875305175781
1729696941760851000,5.242850830078125,11.606250762939453,42.65625,-55.76250076293945
1729696941770851000,5.25285107421875,13.200000762939453,42.39375305175781,-55.80000305175781
1729696941780851000,5.262850830078125,14.568750381469727,42.375,-55.781253814697266
1729696941790851000,5.27285107421875,15.731250762939453,42.09375,-55.89375305175781
1729696941800851000,5.282850830078125,16.650001525878906,41.85000228881836,-55.63125228881836
1729696941810851000,5.29285107421875,17.45625114440918,41.55000305175781,-55.125003814697266
1729696941820851000,5.302850830078125,17.8125,41.38125228881836,-54.88125228881836
1729696941830851000,5.31285107421875,17.962501525878906,41.306251525878906,-54.82500076293945
1729696941840851000,5.322850830078125,17.981250762939453,41.19375228881836,-54.712501525878906
1729696941850851000,5.33285107421875,17.887500762939453,41.118751525878906,-54.656253814697266
1729696941860851000,5.342850830078125,17.8125,40.98750305175781,-54.67500305175781
1729696941870851000,5.35285107421875,17.662500381469727,41.04375076293945,-54.48750305175781
1729696941880851000,5.362850830078125,17.700000762939453,41.19375228881836,-54.58125305175781
1729696941890851000,5.37285107421875,17.512500762939453,41.25,-54.900001525878906
1729696941900851000,5.382850830078125,17.568750381469727,41.400001525878906,-54.993751525878906
1729696941910851000,5.39285107421875,17.475000381469727,41.70000076293945,-54.900001525878906
1729696941920851000,5.402850830078125,17.25,42.30000305175781,-54.95625305175781
1729696941930851000,5.41285107421875,16.743751525878906,42.78750228881836,-55.181251525878906
1729696941940851000,5.422850830078125,16.14375114440918,43.21875,-55.25625228881836
1729696941950851000,5.43285107421875,15.600000381469727,43.5,-55.57500076293945
1729696941960851000,5.442850830078125,14.812500953674316,43.6875,-55.61250305175781
1729696941970851000,5.45285107421875,13.950000762939453,44.13750076293945,-55.33125305175781
1729696941980851000,5.462850830078125,13.068750381469727,44.45625305175781,-55.087501525878906
1729696941990851000,5.47285107421875,12.393750190734863,44.51250076293945,-55.05000305175781
1729696942000851000,5.482850830078125,11.512500762939453,44.47500228881836,-55.031253814697266
1729696942010851000,5.49285107421875,10.725000381469727,44.625,-54.618751525878906
1729696942020851000,5.502850830078125,10.27500057220459,44.681251525878906,-54.13125228881836
1729696942030851000,5.51285107421875,9.61875057220459,44.79375076293945,-53.587501525878906
1729696942040851000,5.522850830078125,9.15000057220459,44.88750076293945,-52.931251525878906
1729696942050851000,5.53285107421875,8.756250381469727,45.243751525878906,-52.48125076293945
1729696942060851000,5.542850830078125,8.11875057220459,45.46875,-51.95625305175781
1729696942070851000,5.55285107421875,7.387500286102295,45.65625,-51.431251525878906
1729696942080851000,5.562850830078125,6.806250095367432,45.78750228881836,-50.250003814697266
1729696942090851000,5.57285107421875,6.318750381469727,46.01250076293945,-49.25625228881836
1729696942100851000,5.582850830078125,5.568750381469727,46.29375076293945,-48.45000076293945
1729696942110851000,5.59285107421875,4.725000381469727,46.650001525878906,-47.41875076293945
1729696942120851000,5.602850830078125,4.068750381469727,47.025001525878906,-46.57500076293945
1729696942130851000,5.61285107421875,3.3187501430511475,47.025001525878906,-45.54375076293945
1729696942140851000,5.622850830078125,2.6625001430511475,47.32500076293945,-44.587501525878906
1729696942150851000,5.63285107421875,2.1000001430511475,48.093753814697266,-43.51875305175781
1729696942160851000,5.642850830078125,1.7062500715255737,48.41250228881836,-42.65625
1729696942170851000,5.65285107421875,1.2750000953674316,48.562503814697266,-41.868751525878906
1729696942180851000,5.662850830078125,1.162500023841858,48.76875305175781,-41.32500076293945
1729696942190851000,5.67285107421875,1.0125000476837158,48.97500228881836,-40.63125228881836
1729696942200851000,5.682850830078125,0.5625,49.087501525878906,-40.181251525878906
1729696942210851000,5.69285107421875,0.35625001788139343,49.14375305175781,-39.73125076293945
1729696942220851000,5.702850830078125,-0.07500000298023224,49.35000228881836,-39.45000076293945
1729696942230851000,5.71285107421875,-0.22500000894069672,48.993751525878906,-39.22500228881836
1729696942240851000,5.722850830078125,-0.6375000476837158,49.25625228881836,-39.20625305175781
1729696942250851000,5.73285107421875,-1.40625,49.462501525878906,-38.98125076293945
1729696942260851000,5.742850830078125,-2.0062501430511475,49.406253814697266,-38.66250228881836
1729696942270851000,5.75285107421875,-2.137500047683716,49.33125305175781,-38.4375
1729696942280851000,5.762850830078125,-2.043750047683716,49.25625228881836,-37.85625076293945
1729696942290851000,5.77285107421875,-2.231250047683716,49.312503814697266,-37.76250076293945
1729696942300851000,5.782850830078125,-1.9312500953674316,49.33125305175781,-37.51875305175781
1729696942310851000,5.79285107421875,-2.0062501430511475,49.312503814697266,-37.23750305175781
1729696942320851000,5.802850830078125,-1.7437500953674316,48.97500228881836,-37.01250076293945
1729696942330851000,5.81285107421875,-1.1812500953674316,48.937503814697266,-37.181251525878906
1729696942340851000,5.822850830078125,-0.8250000476837158,48.993751525878906,-37.087501525878906
1729696942350851000,5.83285107421875,-0.7125000357627869,49.087501525878906,-37.087501525878906
1729696942360851000,5.842850830078125,-0.675000011920929,49.218753814697266,-37.80000305175781
1729696942370851000,5.85285107421875,-0.09375,49.35000228881836,-37.78125
1729696942380851000,5.862850830078125,0.45000001788139343,49.368751525878906,-37.837501525878906
1729696942390851000,5.87285107421875,1.03125,49.57500076293945,-38.00625228881836
1729696942400851000,5.882850830078125,1.5,49.70625305175781,-38.26875305175781
1729696942410851000,5.89285107421875,1.9312500953674316,49.53750228881836,-38.28750228881836
1729696942420851000,5.902850830078125,2.606250047683716,49.57500076293945,-38.51250076293945
1729696942430851000,5.91285107421875,3.562500238418579,49.66875076293945,-38.8125
1729696942440851000,5.922850830078125,4.518750190734863,49.462501525878906,-38.66250228881836
1729696942450851000,5.93285107421875,5.34375,49.275001525878906,-39
1729696942460851000,5.942850830078125,5.868750095367432,49.10625076293945,-39.375
1729696942470851000,5.95285107421875,6.693750381469727,49.05000305175781,-39.39375305175781
1729696942480851000,5.962850830078125,7.181250095367432,48.900001525878906,-39.26250076293945
1729696942490851000,5.97285107421875,7.706250190734863,48.806251525878906,-39.30000305175781
1729696942500851000,5.982850830078125,7.893750190734863,48.54375076293945,-39.13125228881836
1729696942510851000,5.99285107421875,7.875000476837158,48.150001525878906,-39.13125228881836
1729696942520851000,6.002850830078125,7.800000190734863,48.07500076293945,-39.03750228881836
1729696942530851000,6.01285107421875,7.668750286102295,48.01875305175781,-38.64375305175781
1729696942540851000,6.022850830078125,7.575000286102295,47.79375076293945,-38.34375
1729696942550851000,6.03285107421875,7.650000095367432,47.493751525878906,-38.400001525878906
1729696942560851000,6.042850830078125,8.02500057220459,47.400001525878906,-38.306251525878906
1729696942570851000,6.05285107421875,8.34375,47.41875076293945,-38.15625
1729696942580851000,6.062850830078125,8.53125,47.71875,-38.08125305175781
1729696942590851000,6.07285107421875,8.943750381469727,47.962501525878906,-38.08125305175781
1729696942600851000,6.082850830078125,9.225000381469727,48.281253814697266,-38.0625
1729696942610851000,6.09285107421875,9.112500190734863,48.73125076293945,-38.04375076293945
1729696942620851000,6.102850830078125,9.375,49.16250228881836,-37.85625076293945
1729696942630851000,6.11285107421875,9.262500762939453,49.57500076293945,-37.38750076293945
1729696942640851000,6.122850830078125,8.86875057220459,50.13750076293945,-37.44375228881836
1729696942650851000,6.13285107421875,8.625,50.587501525878906,-37.275001525878906
1729696942660851000,6.142850830078125,8.418750762939453,50.70000076293945,-37.23750305175781
1729696942670851000,6.15285107421875,7.837500095367432,51.281253814697266,-36.86250305175781
1729696942680851000,6.162850830078125,7.275000095367432,51.58125305175781,-36.73125076293945
1729696942690851000,6.17285107421875,7.162500381469727,51.525001525878906,-36.75
1729696942700851000,6.182850830078125,6.675000190734863,51.562503814697266,-36.75
1729696942710851000,6.19285107421875,6.150000095367432,51.618751525878906,-37.16250228881836
1729696942720851000,6.202850830078125,5.662500381469727,51.431251525878906,-37.23750305175781
1729696942730851000,6.21285107421875,5.193750381469727,51.375003814697266,-37.48125076293945
1729696942740851000,6.222850830078125,4.762500286102295,51.48750305175781,-37.837501525878906
1729696942750851000,6.23285107421875,4.537500381469727,51.000003814697266,-38.15625
1729696942760851000,6.242850830078125,4.40625,50.962501525878906,-38.38125228881836
1729696942770851000,6.25285107421875,4.03125,50.906253814697266,-38.56875228881836
1729696942780851000,6.262850830078125,3.656250238418579,50.812503814697266,-38.962501525878906
1729696942790851000,6.27285107421875,3.450000047683716,50.73750305175781,-39.16875076293945
1729696942800851000,6.282850830078125,3.468750238418579,50.681251525878906,-39.58125305175781
1729696942810851000,6.29285107421875,3.7125000953674316,50.625003814697266,-39.84375
1729696942820851000,6.302850830078125,3.918750047683716,50.41875076293945,-40.05000305175781
1729696942830851000,6.31285107421875,4.200000286102295,50.47500228881836,-40.42500305175781
1729696942840851000,6.322850830078125,4.537500381469727,50.26875305175781,-40.650001525878906
1729696942850851000,6.33285107421875,5.212500095367432,50.062503814697266,-41.212501525878906
1729696942860851000,6.342850830078125,6.168750286102295,49.95000076293945,-41.56875228881836
1729696942870851000,6.35285107421875,7.143750190734863,50.04375076293945,-42.22500228881836
1729696942880851000,6.362850830078125,8.456250190734863,49.98750305175781,-42.46875
1729696942890851000,6.37285107421875,9.168750762939453,50.04375076293945,-42.88125228881836
1729696942900851000,6.382850830078125,10.21875,49.91250228881836,-43.44375228881836
1729696942910851000,6.39285107421875,11.418750762939453,49.837501525878906,-43.837501525878906
1729696942920851000,6.402850830078125,12.581250190734863,49.53750228881836,-44.400001525878906
1729696942930851000,6.41285107421875,13.55625057220459,49.38750076293945,-44.73750305175781
1729696942940851000,6.422850830078125,14.40000057220459,49.14375305175781,-44.868751525878906
1729696942950851000,6.43285107421875,15.093750953674316,48.82500076293945,-45.056251525878906
1729696942960851000,6.442850830078125,15.600000381469727,48.750003814697266,-45.28125
1729696942970851000,6.45285107421875,16.61250114440918,48.093753814697266,-45.54375076293945
1729696942980851000,6.462850830078125,17.17500114440918,47.73750305175781,-45.993751525878906
1729696942990851000,6.47285107421875,17.868751525878906,47.19375228881836,-46.3125
1729696943000851000,6.482850830078125,18.525001525878906,47.17500305175781,-46.61250305175781
1729696943010851000,6.49285107421875,19.012500762939453,46.96875,-46.70625305175781
1729696943020851000,6.502850830078125,20.0625,47.00625228881836,-47.17500305175781
1729696943030851000,6.51285107421875,20.793750762939453,46.78125,-47.47500228881836
1729696943040851000,6.522850830078125,21.506250381469727,46.35000228881836,-48.01875305175781
1729696943050851000,6.53285107421875,21.918750762939453,46.25625228881836,-48.48750305175781
1729696943060851000,6.542850830078125,22.631250381469727,45.95625305175781,-48.656253814697266
1729696943070851000,6.55285107421875,22.931251525878906,45.82500076293945,-48.91875076293945
1729696943080851000,6.562850830078125,22.931251525878906,45.54375076293945,-49.312503814697266
1729696943090851000,6.57285107421875,23.118751525878906,45.5625,-49.837501525878906
1729696943100851000,6.582850830078125,22.743751525878906,45.39375305175781,-50.00625228881836
1729696943110851000,6.59285107421875,22.762500762939453,45.26250076293945,-50.025001525878906
1729696943120851000,6.602850830078125,22.668750762939453,45.28125,-50.17500305175781
1729696943130851000,6.61285107421875,22.650001525878906,45.16875076293945,-50.250003814697266
1729696943140851000,6.622850830078125,22.350000381469727,45.54375076293945,-50.062503814697266
1729696943150851000,6.63285107421875,22.181251525878906,45.806251525878906,-50.23125076293945
1729696943160851000,6.642850830078125,22.256250381469727,45.993751525878906,-50.062503814697266
1729696943170851000,6.65285107421875,22.181251525878906,46.05000305175781,-50.00625228881836
1729696943180851000,6.662850830078125,22.293750762939453,46.181251525878906,-50.08125305175781
1729696943190851000,6.67285107421875,22.256250381469727,46.23750305175781,-50.13750076293945
1729696943200851000,6.682850830078125,22.256250381469727,46.42500305175781,-50.10000228881836
1729696943210851000,6.69285107421875,22.125,46.85625076293945,-49.875003814697266
1729696943220851000,6.702850830078125,22.14375114440918,46.875,-49.931251525878906
1729696943230851000,6.71285107421875,21.787500381469727,47.0625,-49.76250076293945
1729696943240851000,6.722850830078125,21.01875114440918,47.04375076293945,-49.837501525878906
1729696943250851000,6.73285107421875,19.950000762939453,46.96875,-49.91250228881836
1729696943260851000,6.742850830078125,18.262500762939453,46.98750305175781,-49.743751525878906
1729696943270851000,6.75285107421875,16.650001525878906,47.118751525878906,-49.66875076293945
1729696943280851000,6.762850830078125,14.625000953674316,47.25,-49.42500305175781
1729696943290851000,6.77285107421875,12.656250953674316,47.00625228881836,-49.16250228881836
1729696943300851000,6.782850830078125,10.893750190734863,46.98750305175781,-48.618751525878906
1729696943310851000,6.79285107421875,9.24375057220459,47.13750076293945,-48.03750228881836
1729696943320851000,6.802850830078125,8.268750190734863,47.493751525878906,-47.00625228881836
1729696943330851000,6.81285107421875,7.312500476837158,47.868751525878906,-45.82500076293945
1729696943340851000,6.822850830078125,6.768750190734863,47.98125076293945,-44.88750076293945
1729696943350851000,6.83285107421875,6.056250095367432,48.243751525878906,-43.98750305175781
1729696943360851000,6.842850830078125,5.606250286102295,48.41250228881836,-43.125
1729696943370851000,6.85285107421875,4.96875,48.843753814697266,-42.431251525878906
1729696943380851000,6.862850830078125,4.087500095367432,49.181251525878906,-41.8125
1729696943390851000,6.87285107421875,3.4312500953674316,49.462501525878906,-41.34375
1729696943400851000,6.882850830078125,2.3625001907348633,49.70625305175781,-41.04375076293945
1729696943410851000,6.89285107421875,1.443750023841858,49.95000076293945,-41.10000228881836
1729696943420851000,6.902850830078125,0.75,50.306251525878906,-41.04375076293945
1729696943430851000,6.91285107421875,-0.22500000894069672,50.36250305175781,-40.57500076293945
1729696943440851000,6.922850830078125,-1.2000000476837158,50.681251525878906,-40.10625076293945
1729696943450851000,6.93285107421875,-1.9687501192092896,51.01875305175781,-39.60000228881836
1729696943460851000,6.942850830078125,-2.5875000953674316,51.03750228881836,-39
1729696943470851000,6.95285107421875,-3.5062501430511475,51.187503814697266,-38.04375076293945
1729696943480851000,6.962850830078125,-4.181250095367432,51.150001525878906,-37.44375228881836
1729696943490851000,6.97285107421875,-4.650000095367432,50.98125076293945,-36.431251525878906
1729696943500851000,6.982850830078125,-5.456250190734863,51.187503814697266,-35.41875076293945
1729696943510851000,6.99285107421875,-5.925000190734863,51.58125305175781,-34.743751525878906
1729696943520851000,7.002850830078125,-6.056250095367432,51.54375076293945,-34.21875
1729696943530851000,7.01285107421875,-6.075000286102295,51.45000076293945,-33.84375
1729696943540851000,7.022850830078125,-6.600000381469727,51.50625228881836,-34.03125
1729696943550851000,7.03285107421875,-6.825000286102295,51.22500228881836,-34.087501525878906
1729696943560851000,7.042850830078125,-6.618750095367432,51.243751525878906,-34.125
1729696943570851000,7.05285107421875,-6.975000381469727,51.281253814697266,-34.38750076293945
1729696943580851000,7.062850830078125,-6.975000381469727,50.98125076293945,-34.59375
1729696943590851000,7.07285107421875,-6.900000095367432,50.75625228881836,-34.875
1729696943600851000,7.082850830078125,-6.918750286102295,50.83125305175781,-35.19375228881836
1729696943610851000,7.09285107421875,-7.012500286102295,50.718753814697266,-35.681251525878906
1729696943620851000,7.102850830078125,-6.243750095367432,50.906253814697266,-35.60625076293945
1729696943630851000,7.11285107421875,-5.756250381469727,51.16875076293945,-36.1875
1729696943640851000,7.122850830078125,-5.456250190734863,51.150001525878906,-36.50625228881836
1729696943650851000,7.13285107421875,-4.556250095367432,51.35625076293945,-36.75
1729696943660851000,7.142850830078125,-3.7125000953674316,51.525001525878906,-37.57500076293945
1729696943670851000,7.15285107421875,-2.9625000953674316,51.39375305175781,-38.118751525878906
1729696943680851000,7.162850830078125,-2.0062501430511475,51.31875228881836,-38.51250076293945
1729696943690851000,7.17285107421875,-1.1062500476837158,51.093753814697266,-38.64375305175781
1729696943700851000,7.182850830078125,-0.7875000238418579,50.70000076293945,-38.79375076293945
1729696943710851000,7.19285107421875,-0.675000011920929,50.23125076293945,-38.66250228881836
1729696943720851000,7.202850830078125,-0.7125000357627869,49.98750305175781,-38.41875076293945
1729696943730851000,7.21285107421875,-0.9375000596046448,49.462501525878906,-38.400001525878906
1729696943740851000,7.222850830078125,-1.2000000476837158,49.16250228881836,-37.85625076293945
1729696943750851000,7.23285107421875,-1.537500023841858,48.88125228881836,-37.38750076293945
1729696943760851000,7.242850830078125,-2.0250000953674316,48.58125305175781,-37.20000076293945
1729696943770851000,7.25285107421875,-2.1937501430511475,48.78750228881836,-37.125
1729696943780851000,7.262850830078125,-2.043750047683716,49.01250076293945,-37.087501525878906
1729696943790851000,7.27285107421875,-1.8000000715255737,49.368751525878906,-36.95625305175781
1729696943800851000,7.282850830078125,-1.5562500953674316,49.63125228881836,-37.14375305175781
1729696943810851000,7.29285107421875,-1.1437500715255737,49.95000076293945,-37.03125
1729696943820851000,7.302850830078125,-0.4687500298023224,50.156253814697266,-37.33125305175781
1729696943830851000,7.31285107421875,0.24375000596046448,50.60625076293945,-37.35000228881836
1729696943840851000,7.322850830078125,0.8437500596046448,50.98125076293945,-37.087501525878906
1729696943850851000,7.33285107421875,1.256250023841858,51.26250076293945,-36.806251525878906
1729696943860851000,7.342850830078125,1.1062500476837158,51.243751525878906,-36.76875305175781
1729696943870851000,7.35285107421875,0.8437500596046448,51.16875076293945,-36.75
1729696943880851000,7.362850830078125,0.5625,51.01875305175781,-36.46875
1729696943890851000,7.37285107421875,0.13125000894069672,51.01875305175781,-36.31875228881836
1729696943900851000,7.382850830078125,-0.35625001788139343,51.13125228881836,-35.92500305175781
1729696943910851000,7.39285107421875,-0.9375000596046448,51.16875076293945,-35.8125
1729696943920851000,7.402850830078125,-1.40625,51.056251525878906,-35.775001525878906
1729696943930851000,7.41285107421875,-1.7812501192092896,50.962501525878906,-35.85000228881836
1729696943940851000,7.422850830078125,-1.6500000953674316,51.39375305175781,-35.775001525878906
1729696943950851000,7.43285107421875,-1.2750000953674316,51.656253814697266,-35.90625
1729696943960851000,7.442850830078125,-1.1062500476837158,51.82500076293945,-36.26250076293945
1729696943970851000,7.45285107421875,-1.0500000715255737,52.05000305175781,-36.63750076293945
1729696943980851000,7.462850830078125,-1.443750023841858,52.462501525878906,-36.993751525878906
1729696943990851000,7.47285107421875,-1.7062500715255737,52.66875076293945,-37.44375228881836
1729696944000851000,7.482850830078125,-2.3062500953674316,52.98750305175781,-37.95000076293945
1729696944010851000,7.49285107421875,-2.887500047683716,53.38125228881836,-38.25
1729696944020851000,7.502850830078125,-3.468750238418579,53.55000305175781,-38.681251525878906
1729696944030851000,7.51285107421875,-3.9562501907348633,53.775001525878906,-38.85000228881836
1729696944040851000,7.522850830078125,-4.143750190734863,54.281253814697266,-38.92500305175781
1729696944050851000,7.53285107421875,-4.237500190734863,54.468753814697266,-39.30000305175781
1729696944060851000,7.542850830078125,-4.21875,54.35625076293945,-39.58125305175781
1729696944070851000,7.55285107421875,-4.275000095367432,54.30000305175781,-40.01250076293945
1729696944080851000,7.562850830078125,-4.068750381469727,54.22500228881836,-40.368751525878906
1729696944090851000,7.57285107421875,-4.106250286102295,53.83125305175781,-41.0625
1729696944100851000,7.582850830078125,-3.8812501430511475,53.45625305175781,-41.493751525878906
1729696944110851000,7.59285107421875,-3.468750238418579,52.98750305175781,-41.88750076293945
1729696944120851000,7.602850830078125,-3.1125001907348633,52.10625076293945,-42.5625
1729696944130851000,7.61285107421875,-2.625,51.468753814697266,-42.900001525878906
1729696944140851000,7.622850830078125,-1.8562500476837158,50.812503814697266,-43.35000228881836
1729696944150851000,7.63285107421875,-1.2000000476837158,50.10000228881836,-43.91250228881836
1729696944160851000,7.642850830078125,-0.3375000059604645,49.53750228881836,-44.32500076293945
1729696944170851000,7.65285107421875,1.1062500476837158,49.05000305175781,-44.71875
1729696944180851000,7.662850830078125,2.25,48.58125305175781,-45.28125
1729696944190851000,7.67285107421875,3.093750238418579,48.281253814697266,-45.900001525878906
1729696944200851000,7.682850830078125,3.918750047683716,48.20625305175781,-46.275001525878906
1729696944210851000,7.69285107421875,4.96875,48.11250305175781,-46.6875
1729696944220851000,7.702850830078125,6.206250190734863,47.85000228881836,-47.28750228881836
1729696944230851000,7.71285107421875,7.612500190734863,47.71875,-47.625
1729696944240851000,7.722850830078125,8.456250190734863,47.55000305175781,-47.98125076293945
1729696944250851000,7.73285107421875,9.206250190734863,47.51250076293945,-48.056251525878906
1729696944260851000,7.742850830078125,9.768750190734863,47.212501525878906,-48.375003814697266
1729696944270851000,7.75285107421875,10.537500381469727,47.17500305175781,-48.63750076293945
1729696944280851000,7.762850830078125,11.175000190734863,47.08125305175781,-48.97500228881836
1729696944290851000,7.77285107421875,11.606250762939453,46.96875,-49.312503814697266
1729696944300851000,7.782850830078125,11.643750190734863,47.0625,-49.275001525878906
1729696944310851000,7.79285107421875,11.662500381469727,47.04375076293945,-49.556251525878906
1729696944320851000,7.802850830078125,12.168750762939453,47.10000228881836,-49.53750228881836
1729696944330851000,7.81285107421875,12.356250762939453,46.85625076293945,-49.687503814697266
1729696944340851000,7.822850830078125,13.08750057220459,46.63125228881836,-49.781253814697266
1729696944350851000,7.83285107421875,13.387500762939453,46.20000076293945,-50.118751525878906
1729696944360851000,7.842850830078125,13.74375057220459,46.01250076293945,-50.41875076293945
1729696944370851000,7.85285107421875,14.11875057220459,45.73125076293945,-50.45625305175781
1729696944380851000,7.862850830078125,14.268750190734863,45.525001525878906,-50.60625076293945
1729696944390851000,7.87285107421875,14.662500381469727,45.375,-50.73750305175781
1729696944400851000,7.882850830078125,14.943750381469727,45.1875,-51.11250305175781
1729696944410851000,7.89285107421875,15.037500381469727,45.1875,-51.39375305175781
1729696944420851000,7.902850830078125,14.943750381469727,45.243751525878906,-51.525001525878906
1729696944430851000,7.91285107421875,15.075000762939453,45.243751525878906,-51.67500305175781
1729696944440851000,7.922850830078125,15.43125057220459,44.98125076293945,-51.86250305175781
1729696944450851000,7.93285107421875,15.43125057220459,45.16875076293945,-52.01250076293945
1729696944460851000,7.942850830078125,15.393750190734863,45.13125228881836,-52.275001525878906
1729696944470851000,7.95285107421875,15.018750190734863,45.16875076293945,-52.406253814697266
1729696944480851000,7.962850830078125,14.568750381469727,45.31875228881836,-52.312503814697266
1729696944490851000,7.97285107421875,13.856250762939453,45.30000305175781,-52.125003814697266
1729696944500851000,7.982850830078125,12.937500953674316,45.58125305175781,-51.900001525878906
1729696944510851000,7.99285107421875,12.093750953674316,45.88125228881836,-51.525001525878906
1729696944520851000,8.002850830078126,10.706250190734863,46.29375076293945,-50.88750076293945
1729696944530851000,8.01285107421875,9.5625,46.20000076293945,-50.41875076293945
1729696944540851000,8.022850830078125,8.456250190734863,46.20000076293945,-49.80000305175781
1729696944550851000,8.03285107421875,7.350000381469727,46.51875305175781,-48.91875076293945
1729696944560851000,8.042850830078125,6.112500190734863,46.5,-48.150001525878906
1729696944570851000,8.05285107421875,5.306250095367432,46.95000076293945,-47.400001525878906
1729696944580851000,8.062850830078125,4.443750381469727,47.23125076293945,-46.53750228881836
1729696944590851000,8.07285107421875,3.4125001430511475,47.47500228881836,-45.48750305175781
1729696944600851000,8.082850830078126,2.700000047683716,48.03750228881836,-44.8125
1729696944610851000,8.09285107421875,1.7812501192092896,48.750003814697266,-44.34375
1729696944620851000,8.102850830078125,0.8062500357627869,49.406253814697266,-43.80000305175781
1729696944630851000,8.11285107421875,-0.28125,49.80000305175781,-43.25625228881836
1729696944640851000,8.122850830078125,-1.3125,50.156253814697266,-42.5625
1729696944650851000,8.13285107421875,-2.3625001907348633,50.306251525878906,-42.243751525878906
1729696944660851000,8.142850830078125,-3.637500047683716,50.493751525878906,-41.681251525878906
1729696944670851000,8.15285107421875,-4.575000286102295,50.75625228881836,-41.26875305175781
1729696944680851000,8.162850830078124,-5.625,50.79375076293945,-40.70625305175781
1729696944690851000,8.17285107421875,-6.300000190734863,50.75625228881836,-39.73125076293945
1729696944700851000,8.182850830078126,-7.012500286102295,50.73750305175781,-39.13125228881836
1729696944710851000,8.19285107421875,-7.293750286102295,50.625003814697266,-38.493751525878906
1729696944720851000,8.202850830078125,-7.537500381469727,51.01875305175781,-38.15625
1729696944730851000,8.21285107421875,-7.725000381469727,51.20625305175781,-37.3125
1729696944740851000,8.222850830078125,-7.743750095367432,51.20625305175781,-36.84375
1729696944750851000,8.23285107421875,-7.781250476837158,51.337501525878906,-36.525001525878906
1729696944760851000,8.242850830078124,-7.743750095367432,51.30000305175781,-36.20625305175781
1729696944770851000,8.25285107421875,-8.21250057220459,51.30000305175781,-35.90625
1729696944780851000,8.262850830078126,-8.30625057220459,51.375003814697266,-35.23125076293945
1729696944790851000,8.27285107421875,-8.512500762939453,51.58125305175781,-34.98750305175781
1729696944800851000,8.282850830078125,-8.40000057220459,51.562503814697266,-34.53750228881836
1729696944810851000,8.29285107421875,-8.456250190734863,51.48750305175781,-34.48125076293945
1729696944820851000,8.302850830078125,-8.25,51.73125076293945,-34.33125305175781
1729696944830851000,8.31285107421875,-8.11875057220459,51.843753814697266,-34.21875
1729696944840851000,8.322850830078124,-7.800000190734863,51.993751525878906,-34.275001525878906
1729696944850851000,8.33285107421875,-7.162500381469727,52.125003814697266,-34.48125076293945
1729696944860851000,8.342850830078126,-6.637500286102295,52.218753814697266,-34.98750305175781
1729696944870851000,8.35285107421875,-5.887500286102295,52.33125305175781,-35.26875305175781
1729696944880851000,8.362850830078125,-5.231250286102295,52.44375228881836,-35.83125305175781
1729696944890851000,8.37285107421875,-4.425000190734863,52.837501525878906,-36.26250076293945
1729696944900851000,8.382850830078125,-3.637500047683716,53.08125305175781,-36.900001525878906
1729696944910851000,8.39285107421875,-2.700000047683716,52.968753814697266,-37.53750228881836
1729696944920851000,8.402850830078124,-1.8000000715255737,53.10000228881836,-38.118751525878906
1729696944930851000,8.41285107421875,-1.0875000953674316,53.025001525878906,-38.47500228881836
1729696944940851000,8.422850830078126,-0.39375001192092896,52.837501525878906,-38.73750305175781
1729696944950851000,8.43285107421875,-0.26250001788139343,52.275001525878906,-38.681251525878906
1729696944960851000,8.442850830078125,-0.07500000298023224,51.88125228881836,-38.51250076293945
1729696944970851000,8.45285107421875,-0.11250000447034836,51.281253814697266,-38.25
1729696944980851000,8.462850830078125,0.01875000074505806,50.88750076293945,-37.931251525878906
1729696944990851000,8.47285107421875,-0.30000001192092896,50.64375305175781,-37.42500305175781
1729696945000851000,8.482850830078124,-0.48750001192092896,50.32500076293945,-36.82500076293945
1729696945010851000,8.49285107421875,-0.5250000357627869,50.08125305175781,-36.58125305175781
1729696945020851000,8.502850830078126,-0.39375001192092896,50.10000228881836,-36.1875
1729696945030851000,8.51285107421875,0.24375000596046448,50.45625305175781,-35.94375228881836
1729696945040851000,8.522850830078125,0.30000001192092896,50.437503814697266,-36.01875305175781
1729696945050851000,8.53285107421875,0.8250000476837158,50.493751525878906,-36.11250305175781
1729696945060851000,8.542850830078125,1.2750000953674316,50.41875076293945,-36.22500228881836
1729696945070851000,8.55285107421875,2.043750047683716,50.493751525878906,-36.22500228881836
1729696945080851000,8.562850830078125,2.793750047683716,50.51250076293945,-36.1875
1729696945090851000,8.57285107421875,2.8312501907348633,50.51250076293945,-36.150001525878906
1729696945100851000,8.582850830078126,2.7562501430511475,50.51250076293945,-36.13125228881836
1729696945110851000,8.59285107421875,2.15625,50.41875076293945,-36.26250076293945
1729696945120851000,8.602850830078125,1.8000000715255737,50.306251525878906,-36.056251525878906
1729696945130851000,8.61285107421875,1.0875000953674316,50.306251525878906,-35.587501525878906
1729696945140851000,8.622850830078125,0.28125,50.32500076293945,-35.23125076293945
1729696945150851000,8.63285107421875,-0.8062500357627869,50.587501525878906,-35.19375228881836
1729696945160851000,8.642850830078125,-1.9312500953674316,50.79375076293945,-35.23125076293945
1729696945170851000,8.65285107421875,-2.3062500953674316,51.000003814697266,-35.025001525878906
1729696945180851000,8.662850830078124,-2.625,51.093753814697266,-34.875
1729696945190851000,8.67285107421875,-2.6812500953674316,51.41250228881836,-34.72500228881836
1729696945200851000,8.682850830078126,-2.8500001430511475,51.86250305175781,-34.95000076293945
1729696945210851000,8.69285107421875,-2.7375001907348633,52.087501525878906,-35.25
1729696945220851000,8.702850830078125,-2.8125,52.48125076293945,-35.55000305175781
1729696945230851000,8.71285107421875,-2.7375001907348633,52.687503814697266,-36.056251525878906
1729696945240851000,8.722850830078125,-2.7750000953674316,52.81875228881836,-36.31875228881836
1729696945250851000,8.73285107421875,-2.9250001907348633,53.10000228881836,-36.73125076293945
1729696945260851000,8.742850830078124,-2.7375001907348633,53.437503814697266,-37.3125
1729696945270851000,8.75285107421875,-2.512500047683716,53.64375305175781,-38.025001525878906
1729696945280851000,8.762850830078126,-2.1187500953674316,53.718753814697266,-38.60625076293945
1729696945290851000,8.77285107421875,-1.8000000715255737,53.88750076293945,-39.48750305175781
1729696945300851000,8.782850830078125,-1.4625000953674316,53.70000076293945,-40.05000305175781
1729696945310851000,8.79285107421875,-1.125,53.587501525878906,-40.40625
1729696945320851000,8.802850830078125,-0.8812500238418579,53.437503814697266,-40.81875228881836
1729696945330851000,8.81285107421875,-0.39375001192092896,53.212501525878906,-41.41875076293945
1729696945340851000,8.822850830078124,-0.11250000447034836,52.85625076293945,-41.85000228881836
1729696945350851000,8.83285107421875,0.28125,52.35000228881836,-42.22500228881836
1729696945360851000,8.842850830078126,0.7312500476837158,51.712501525878906,-42.337501525878906
1729696945370851000,8.85285107421875,0.8437500596046448,51.13125228881836,-42.60000228881836
1729696945380851000,8.862850830078125,1.2937500476837158,50.64375305175781,-42.806251525878906
1729696945390851000,8.87285107421875,2.043750047683716,50.156253814697266,-43.16250228881836
1729696945400851000,8.882850830078125,2.8687500953674316,49.556251525878906,-43.57500076293945
1729696945410851000,8.89285107421875,3.7875001430511475,48.993751525878906,-43.96875
1729696945420851000,8.902850830078124,4.481250286102295,48.41250228881836,-44.34375
1729696945430851000,8.91285107421875,5.418750286102295,48.03750228881836,-44.56875228881836
1729696945440851000,8.922850830078126,6.431250095367432,47.71875,-45.31875228881836
1729696945450851000,8.93285107421875,7.612500190734863,47.118751525878906,-45.82500076293945
1729696945460851000,8.942850830078125,8.512500762939453,46.85625076293945,-46.40625
1729696945470851000,8.95285107421875,9.09375,46.25625228881836,-46.743751525878906
1729696945480851000,8.962850830078125,9.71250057220459,45.993751525878906,-47.15625
1729696945490851000,8.97285107421875,9.90000057220459,45.76875305175781,-47.34375
1729696945500851000,8.982850830078124,10.293750762939453,45.525001525878906,-47.53125
1729696945510851000,8.99285107421875,10.3125,45.35625076293945,-47.85000228881836
1729696945520851000,9.002850830078126,10.21875,45.35625076293945,-47.70000076293945
1729696945530851000,9.01285107421875,10.08750057220459,45.45000076293945,-47.70000076293945
1729696945540851000,9.022850830078125,10.162500381469727,45.337501525878906,-47.962501525878906
1729696945550851000,9.03285107421875,10.3125,45.431251525878906,-47.94375228881836
1729696945560851000,9.042850830078125,10.425000190734863,45.45000076293945,-48
1729696945570851000,9.05285107421875,10.575000762939453,45.375,-48.26250076293945
1729696945580851000,9.062850830078125,10.612500190734863,45.46875,-48.58125305175781
1729696945590851000,9.07285107421875,10.725000381469727,45.35625076293945,-48.993751525878906
1729696945600851000,9.082850830078126,10.875,45.09375,-49.35000228881836
1729696945610851000,9.09285107421875,11.137500762939453,45.30000305175781,-49.66875076293945
1729696945620851000,9.102850830078125,11.30625057220459,45.16875076293945,-49.687503814697266
1729696945630851000,9.11285107421875,11.456250190734863,45.056251525878906,-49.89375305175781
1729696945640851000,9.122850830078125,11.737500190734863,45.01875305175781,-50.10000228881836
1729696945650851000,9.13285107421875,12.281250953674316,44.8125,-50.025001525878906
1729696945660851000,9.142850830078125,12.581250190734863,44.73750305175781,-50.00625228881836
1729696945670851000,9.15285107421875,12.693750381469727,44.79375076293945,-49.80000305175781
1729696945680851000,9.162850830078124,12.43125057220459,44.775001525878906,-49.95000076293945
1729696945690851000,9.17285107421875,12,44.55000305175781,-49.95000076293945
1729696945700851000,9.182850830078126,11.287500381469727,44.625,-49.875003814697266
1729696945710851000,9.19285107421875,10.55625057220459,44.64375305175781,-49.743751525878906
1729696945720851000,9.202850830078125,9.300000190734863,44.60625076293945,-49.44375228881836
1729696945730851000,9.21285107421875,8.15625,44.98125076293945,-48.993751525878906
1729696945740851000,9.222850830078125,6.768750190734863,45.13125228881836,-48.60000228881836
1729696945750851000,9.23285107421875,5.568750381469727,45.431251525878906,-48.01875305175781
1729696945760851000,9.242850830078124,4.59375,45.84375,-46.931251525878906
1729696945770851000,9.25285107421875,3.356250047683716,46.16250228881836,-45.86250305175781
1729696945780851000,9.262850830078126,2.3812501430511475,46.556251525878906,-44.962501525878906
1729696945790851000,9.27285107421875,1.4625000953674316,47.13750076293945,-44.118751525878906
1729696945800851000,9.282850830078125,0.75,47.70000076293945,-43.3125
1729696945810851000,9.29285107421875,-0.30000001192092896,48.20625305175781,-42.60000228881836
1729696945820851000,9.302850830078125,-0.8250000476837158,48.712501525878906,-41.90625
1729696945830851000,9.31285107421875,-1.7437500953674316,49.125003814697266,-41.28750228881836
1729696945840851000,9.322850830078124,-2.5687501430511475,49.500003814697266,-40.931251525878906
1729696945850851000,9.33285107421875,-3.0187501907348633,49.837501525878906,-40.72500228881836
1729696945860851000,9.342850830078126,-3.731250047683716,50.26875305175781,-40.21875
1729696945870851000,9.35285107421875,-4.40625,50.45625305175781,-39.76875305175781
1729696945880851000,9.362850830078125,-5.025000095367432,50.75625228881836,-39.22500228881836
1729696945890851000,9.37285107421875,-5.587500095367432,50.75625228881836,-38.94375228881836
1729696945900851000,9.382850830078125,-6.375000476837158,50.906253814697266,-38.28750228881836
1729696945910851000,9.39285107421875,-6.656250476837158,50.92500305175781,-37.91250228881836
1729696945920851000,9.402850830078124,-6.675000190734863,51.150001525878906,-36.993751525878906
1729696945930851000,9.41285107421875,-6.956250190734863,51.45000076293945,-36.26250076293945
1729696945940851000,9.422850830078126,-7.068750381469727,51.468753814697266,-35.73750305175781
1729696945950851000,9.43285107421875,-7.050000190734863,51.562503814697266,-35.118751525878906
1729696945960851000,9.442850830078125,-7.050000190734863,51.562503814697266,-34.51875305175781
1729696945970851000,9.45285107421875,-6.918750286102295,51.712501525878906,-33.75
1729696945980851000,9.462850830078125,-6.768750190734863,51.900001525878906,-33.41250228881836
1729696945990851000,9.47285107421875,-6.581250190734863,52.087501525878906,-32.625
1729696946000851000,9.482850830078124,-6.712500095367432,52.087501525878906,-32.45625305175781
1729696946010851000,9.49285107421875,-6.693750381469727,52.06875228881836,-32.306251525878906
1729696946020851000,9.502850830078126,-6.618750095367432,52.16250228881836,-32.34375
1729696946030851000,9.51285107421875,-6.487500190734863,52.25625228881836,-32.306251525878906
1729696946040851000,9.522850830078125,-6,52.462501525878906,-32.587501525878906
1729696946050851000,9.53285107421875,-5.606250286102295,52.76250076293945,-33
1729696946060851000,9.542850830078125,-5.081250190734863,52.66875076293945,-33.1875
1729696946070851000,9.55285107421875,-4.706250190734863,52.42500305175781,-33.88125228881836
1729696946080851000,9.562850830078125,-4.050000190734863,52.51875305175781,-34.40625
1729696946090851000,9.57285107421875,-3.168750047683716,52.593753814697266,-34.96875
1729696946100851000,9.582850830078126,-2.231250047683716,52.72500228881836,-35.26875305175781
1729696946110851000,9.59285107421875,-1.3687500953674316,52.66875076293945,-35.681251525878906
1729696946120851000,9.602850830078125,-0.6937500238418579,52.80000305175781,-36.243751525878906
1729696946130851000,9.61285107421875,-0.01875000074505806,52.66875076293945,-36.45000076293945
1729696946140851000,9.622850830078125,0.48750001192092896,52.593753814697266,-36.78750228881836
1729696946150851000,9.63285107421875,1.125,52.312503814697266,-36.73125076293945
1729696946160851000,9.642850830078125,1.443750023841858,51.88125228881836,-36.67500305175781
1729696946170851000,9.65285107421875,1.3875000476837158,51.243751525878906,-36.243751525878906
1729696946180851000,9.662850830078124,1.256250023841858,50.55000305175781,-36
1729696946190851000,9.67285107421875,0.956250011920929,50.118751525878906,-35.66250228881836
1729696946200851000,9.682850830078126,0.7875000238418579,49.42500305175781,-35.13750076293945
1729696946210851000,9.69285107421875,0.5250000357627869,49.06875228881836,-34.650001525878906
1729696946220851000,9.702850830078125,0.39375001192092896,48.937503814697266,-34.23750305175781
1729696946230851000,9.71285107421875,0.20625001192092896,49.42500305175781,-34.10625076293945
1729696946240851000,9.722850830078125,0.15000000596046448,49.687503814697266,-34.03125
1729696946250851000,9.73285107421875,0.5062500238418579,50.10000228881836,-34.125
1729696946260851000,9.742850830078124,0.956250011920929,50.41875076293945,-34.25625228881836
1729696946270851000,9.75285107421875,1.5,50.79375076293945,-34.3125
1729696946280851000,9.762850830078126,2.0062501430511475,51.056251525878906,-34.20000076293945
1729696946290851000,9.77285107421875,2.4375,51.41250228881836,-34.51875305175781
1729696946300851000,9.782850830078125,2.887500047683716,51.60000228881836,-34.875
1729696946310851000,9.79285107421875,2.9250001907348633,51.337501525878906,-34.931251525878906
1729696946320851000,9.802850830078125,2.8312501907348633,51.187503814697266,-35.0625
1729696946330851000,9.81285107421875,2.3812501430511475,51.468753814697266,-35.15625
1729696946340851000,9.822850830078124,1.7062500715255737,51.843753814697266,-35.23125076293945
1729696946350851000,9.83285107421875,0.9187500476837158,52.031253814697266,-35.60625076293945
1729696946360851000,9.842850830078126,0.3187500238418579,52.218753814697266,-35.962501525878906
1729696946370851000,9.85285107421875,0,52.51875305175781,-36.01875305175781
1729696946380851000,9.862850830078125,-0.45000001788139343,52.500003814697266,-36.1875
1729696946390851000,9.87285107421875,-0.8250000476837158,52.53750228881836,-36.35625076293945
1729696946400851000,9.882850830078125,-1.2750000953674316,52.91250228881836,-36.525001525878906
1729696946410851000,9.89285107421875,-1.443750023841858,52.837501525878906,-36.86250305175781
1729696946420851000,9.902850830078124,-1.350000023841858,52.875003814697266,-37.181251525878906
1729696946430851000,9.91285107421875,-1.3125,53.00625228881836,-37.35000228881836
1729696946440851000,9.922850830078126,-1.5187500715255737,53.08125305175781,-37.42500305175781
1729696946450851000,9.93285107421875,-1.7812501192092896,52.968753814697266,-37.53750228881836
1729696946460851000,9.942850830078125,-2.0812501907348633,53.45625305175781,-37.66875076293945
1729696946470851000,9.95285107421875,-1.9875000715255737,53.73750305175781,-38.04375076293945
1729696946480851000,9.962850830078125,-1.7437500953674316,53.75625228881836,-38.45625305175781
1729696946490851000,9.97285107421875,-1.5562500953674316,53.83125305175781,-38.681251525878906
1729696946500851000,9.982850830078124,-1.5937501192092896,53.775001525878906,-39.09375
1729696946510851000,9.99285107421875,-1.6125000715255737,53.66250228881836,-39.375
1729696946520851000,10.002850830078126,-1.6687500476837158,53.66250228881836,-39.91875076293945
1729696946530851000,10.01285107421875,-1.6500000953674316,53.38125228881836,-40.57500076293945
1729696946540851000,10.022850830078125,-1.256250023841858,52.91250228881836,-41.0625
1729696946550851000,10.03285107421875,-1.2375000715255737,52.61250305175781,-41.625
1729696946560851000,10.042850830078125,-0.956250011920929,52.25625228881836,-41.962501525878906
1729696946570851000,10.05285107421875,-0.675000011920929,51.69375228881836,-42.28125
1729696946580851000,10.062850830078125,-0.01875000074505806,51.187503814697266,-42.618751525878906
1729696946590851000,10.07285107421875,0.5437500476837158,50.41875076293945,-43.05000305175781
1729696946600851000,10.082850830078126,1.5562500953674316,49.66875076293945,-43.53750228881836
1729696946610851000,10.09285107421875,2.2687501907348633,49.05000305175781,-43.875
1729696946620851000,10.102850830078125,2.9625000953674316,48.243751525878906,-44.32500076293945
1729696946630851000,10.11285107421875,4.03125,47.71875,-44.75625228881836
1729696946640851000,10.122850830078125,5.100000381469727,47.17500305175781,-45.16875076293945
1729696946650851000,10.13285107421875,6.112500190734863,46.78125,-45.806251525878906
1729696946660851000,10.142850830078125,7.012500286102295,46.38750076293945,-46.25625228881836
1729696946670851000,10.15285107421875,8.362500190734863,46.23750305175781,-46.837501525878906
1729696946680851000,10.162850830078124,9.15000057220459,46.087501525878906,-47.26875305175781
1729696946690851000,10.17285107421875,10.200000762939453,45.712501525878906,-48.03750228881836
1729696946700851000,10.182850830078126,11.043750762939453,45.63750076293945,-48.48750305175781
1729696946710851000,10.19285107421875,12.018750190734863,45.22500228881836,-49.06875228881836
1729696946720851000,10.202850830078125,12.80625057220459,45.03750228881836,-49.72500228881836
1729696946730851000,10.21285107421875,13.481250762939453,44.587501525878906,-50.13750076293945
1729696946740851000,10.222850830078125,13.950000762939453,44.212501525878906,-50.775001525878906
1729696946750851000,10.23285107421875,14.175000190734863,44.15625,-50.98125076293945
1729696946760851000,10.242850830078124,14.418750762939453,43.875,-51.48750305175781
1729696946770851000,10.25285107421875,14.662500381469727,43.95000076293945,-51.54375076293945
1729696946780851000,10.262850830078126,14.77500057220459,43.76250076293945,-51.86250305175781
1729696946790851000,10.27285107421875,14.625000953674316,43.85625076293945,-51.993751525878906
1729696946800851000,10.282850830078125,14.437500953674316,43.78125,-52.05000305175781
1729696946810851000,10.29285107421875,14.250000953674316,43.98750305175781,-52.20000076293945
1729696946820851000,10.302850830078125,14.137500762939453,44.025001525878906,-52.031253814697266
1729696946830851000,10.31285107421875,13.83750057220459,43.743751525878906,-52.312503814697266
1729696946840851000,10.322850830078124,13.668750762939453,43.91250228881836,-52.38750076293945
1729696946850851000,10.33285107421875,13.443750381469727,43.98750305175781,-52.593753814697266
1729696946860851000,10.342850830078126,13.443750381469727,43.89375305175781,-52.500003814697266
1729696946870851000,10.35285107421875,13.443750381469727,43.89375305175781,-52.556251525878906
1729696946880851000,10.362850830078125,12.956250190734863,43.837501525878906,-52.406253814697266
1729696946890851000,10.37285107421875,12.750000953674316,43.95000076293945,-52.33125305175781
1729696946900851000,10.382850830078125,12.037500381469727,44.08125305175781,-52.275001525878906
1729696946910851000,10.39285107421875,11.100000381469727,44.19375228881836,-51.76875305175781
1729696946920851000,10.402850830078124,9.90000057220459,44.08125305175781,-51.281253814697266
1729696946930851000,10.41285107421875,8.625,43.96875,-50.531253814697266
1729696946940851000,10.422850830078126,7.125000476837158,44.625,-50.13750076293945
1729696946950851000,10.43285107421875,5.268750190734863,44.962501525878906,-49.10625076293945
1729696946960851000,10.442850830078125,4.068750381469727,45.50625228881836,-48.31875228881836
1729696946970851000,10.45285107421875,2.6625001430511475,45.806251525878906,-47.25
1729696946980851000,10.462850830078125,1.5,46.556251525878906,-46.23750305175781
1729696946990851000,10.47285107421875,0.75,47.0625,-45.243751525878906
1729696947000851000,10.482850830078124,0.11250000447034836,47.83125305175781,-44.26875305175781
1729696947010851000,10.49285107421875,-0.45000001788139343,48.60000228881836,-43.44375228881836
1729696947020851000,10.502850830078126,-0.956250011920929,48.86250305175781,-42.58125305175781
1729696947030851000,10.51285107421875,-1.40625,49.462501525878906,-42.16875076293945
1729696947040851000,10.522850830078125,-1.8750001192092896,49.85625076293945,-41.56875228881836
1729696947050851000,10.53285107421875,-2.3625001907348633,50.45625305175781,-41.32500076293945
1729696947060851000,10.542850830078125,-2.5875000953674316,50.625003814697266,-41.32500076293945
1729696947070851000,10.55285107421875,-3.3000001907348633,50.92500305175781,-41.38125228881836
1729696947080851000,10.562850830078125,-3.8062500953674316,51.01875305175781,-41.19375228881836
1729696947090851000,10.57285107421875,-4.21875,51.243751525878906,-40.96875
1729696947100851000,10.582850830078126,-4.6875,51.375003814697266,-40.66875076293945
1729696947110851000,10.59285107421875,-4.706250190734863,51.39375305175781,-40.20000076293945
1729696947120851000,10.602850830078125,-5.006250381469727,51.54375076293945,-39.900001525878906
1729696947130851000,10.61285107421875,-4.96875,51.750003814697266,-39.50625228881836
1729696947140851000,10.622850830078125,-5.081250190734863,51.843753814697266,-38.625
1729696947150851000,10.63285107421875,-4.462500095367432,52.218753814697266,-38.00625228881836
1729696947160851000,10.642850830078125,-3.918750047683716,52.57500076293945,-37.5
1729696947170851000,10.65285107421875,-3.450000047683716,52.80000305175781,-37.368751525878906
1729696947180851000,10.662850830078124,-3.0187501907348633,53.118751525878906,-36.95625305175781
1729696947190851000,10.67285107421875,-2.887500047683716,53.437503814697266,-36.712501525878906
1729696947200851000,10.682850830078126,-2.325000047683716,53.60625076293945,-36.65625
1729696947210851000,10.69285107421875,-1.7812501192092896,53.55000305175781,-36.41250228881836
1729696947220851000,10.702850830078125,-1.2937500476837158,53.718753814697266,-36.16875076293945
1729696947230851000,10.71285107421875,-0.8250000476837158,53.75625228881836,-36.01875305175781
1729696947240851000,10.722850830078125,-0.675000011920929,53.681251525878906,-35.94375228881836
1729696947250851000,10.73285107421875,-0.11250000447034836,53.718753814697266,-35.681251525878906
1729696947260851000,10.742850830078124,0.6937500238418579,53.75625228881836,-35.71875
1729696947270851000,10.75285107421875,1.443750023841858,53.681251525878906,-35.868751525878906
1729696947280851000,10.762850830078126,2.25,53.75625228881836,-35.98125076293945
1729696947290851000,10.77285107421875,2.5875000953674316,53.60625076293945,-36.056251525878906
1729696947300851000,10.782850830078125,3.4125001430511475,53.531253814697266,-36.41250228881836
1729696947310851000,10.79285107421875,4.068750381469727,53.36250305175781,-36.69375228881836
1729696947320851000,10.802850830078125,4.800000190734863,53.118751525878906,-36.78750228881836
1729696947330851000,10.81285107421875,4.950000286102295,52.556251525878906,-36.69375228881836
1729696947340851000,10.822850830078124,4.931250095367432,51.97500228881836,-36.31875228881836
1729696947350851000,10.83285107421875,5.118750095367432,51.525001525878906,-36
1729696947360851000,10.842850830078126,4.78125,50.94375228881836,-35.55000305175781
1729696947370851000,10.85285107421875,4.818750381469727,50.75625228881836,-35.118751525878906
1729696947380851000,10.862850830078125,4.6875,50.47500228881836,-34.556251525878906
1729696947390851000,10.87285107421875,4.368750095367432,50.437503814697266,-33.900001525878906
1729696947400851000,10.882850830078125,4.181250095367432,50.400001525878906,-33.75
1729696947410851000,10.89285107421875,4.237500190734863,50.437503814697266,-33.63750076293945
1729696947420851000,10.902850830078124,4.6875,50.718753814697266,-33.63750076293945
1729696947430851000,10.91285107421875,5.15625,51.03750228881836,-33.525001525878906
1729696947440851000,10.922850830078126,5.700000286102295,51.41250228881836,-33.65625
1729696947450851000,10.93285107421875,6.318750381469727,51.58125305175781,-33.84375
1729696947460851000,10.942850830078125,6.543750286102295,51.937503814697266,-34.20000076293945
1729696947470851000,10.95285107421875,6.656250476837158,51.937503814697266,-34.25625228881836
1729696947480851000,10.962850830078125,6.937500476837158,52.14375305175781,-34.087501525878906
1729696947490851000,10.97285107421875,7.162500381469727,52.556251525878906,-34.10625076293945
1729696947500851000,10.982850830078124,6.862500190734863,52.63125228881836,-34.3125
1729696947510851000,10.99285107421875,6.525000095367432,52.837501525878906,-34.20000076293945
1729696947520851000,11.002850830078126,6.075000286102295,52.95000076293945,-34.20000076293945
1729696947530851000,11.01285107421875,5.456250190734863,53.118751525878906,-34.21875
1729696947540851000,11.022850830078125,5.175000190734863,53.025001525878906,-34.3125
1729696947550851000,11.03285107421875,4.893750190734863,52.95000076293945,-34.76250076293945
1729696947560851000,11.042850830078125,4.293750286102295,52.931251525878906,-35.00625228881836
1729696947570851000,11.05285107421875,3.6937501430511475,52.650001525878906,-35.26875305175781
1729696947580851000,11.062850830078125,3.375000238418579,52.743751525878906,-35.493751525878906
1729696947590851000,11.07285107421875,2.71875,52.743751525878906,-36.11250305175781
1729696947600851000,11.082850830078126,2.3625001907348633,52.72500228881836,-36.41250228881836
1729696947610851000,11.09285107421875,1.9312500953674316,52.98750305175781,-36.67500305175781
1729696947620851000,11.102850830078125,0.9750000238418579,53.10000228881836,-36.993751525878906
1729696947630851000,11.11285107421875,0.48750001192092896,53.493751525878906,-37.16250228881836
1729696947640851000,11.122850830078125,0.11250000447034836,53.775001525878906,-37.63125228881836
1729696947650851000,11.13285107421875,-0.4312500059604645,54.31875228881836,-38.04375076293945
1729696947660851000,11.142850830078125,-0.7312500476837158,54.712501525878906,-38.306251525878906
1729696947670851000,11.15285107421875,-0.9375000596046448,54.900001525878906,-38.587501525878906
1729696947680851000,11.162850830078124,-1.0500000715255737,55.181251525878906,-39.20625305175781
1729696947690851000,11.17285107421875,-1.0500000715255737,55.181251525878906,-39.73125076293945
1729696947700851000,11.182850830078126,-0.8250000476837158,55.35000228881836,-40.23750305175781
1729696947710851000,11.19285107421875,-0.6937500238418579,55.312503814697266,-40.98750305175781
1729696947720851000,11.202850830078125,-0.22500000894069672,54.993751525878906,-41.45625305175781
1729696947730851000,11.21285107421875,0.15000000596046448,54.750003814697266,-41.90625
1729696947740851000,11.222850830078125,0.5437500476837158,54.093753814697266,-42.60000228881836
1729696947750851000,11.23285107421875,0.9750000238418579,53.56875228881836,-43.16250228881836
1729696947760851000,11.242850830078124,1.40625,52.81875228881836,-43.61250305175781
1729696947770851000,11.25285107421875,1.5750000476837158,52.05000305175781,-44.0625
1729696947780851000,11.262850830078126,1.9687501192092896,51.281253814697266,-44.36250305175781
1729696947790851000,11.27285107421875,2.4000000953674316,50.32500076293945,-44.83125305175781
1729696947800851000,11.282850830078125,2.8312501907348633,49.76250076293945,-45.337501525878906
1729696947810851000,11.29285107421875,3.5812501907348633,48.843753814697266,-45.75
1729696947820851000,11.302850830078125,4.087500095367432,48.45000076293945,-46.16250228881836
1729696947830851000,11.31285107421875,4.6875,48.16875076293945,-46.5
1729696947840851000,11.322850830078124,5.287500381469727,47.64375305175781,-46.81875228881836
1729696947850851000,11.33285107421875,6.150000095367432,47.493751525878906,-47.34375
1729696947860851000,11.342850830078126,6.956250190734863,47.41875076293945,-47.83125305175781
1729696947870851000,11.35285107421875,7.631250381469727,47.41875076293945,-48.20625305175781
1729696947880851000,11.362850830078125,8.381250381469727,47.26875305175781,-48.82500076293945
1729696947890851000,11.37285107421875,8.90625,47.212501525878906,-49.500003814697266
1729696947900851000,11.382850830078125,9.450000762939453,46.98750305175781,-49.968753814697266
1729696947910851000,11.39285107421875,10.27500057220459,46.70625305175781,-50.493751525878906
1729696947920851000,11.402850830078124,10.6875,46.80000305175781,-50.775001525878906
1729696947930851000,11.41285107421875,11.02500057220459,46.556251525878906,-51.093753814697266
1729696947940851000,11.422850830078126,11.34375,46.53750228881836,-51.281253814697266
1729696947950851000,11.43285107421875,11.68125057220459,46.38750076293945,-51.58125305175781
1729696947960851000,11.442850830078125,11.8125,46.16250228881836,-51.431251525878906
1729696947970851000,11.45285107421875,11.90625,46.16250228881836,-51.468753814697266
1729696947980851000,11.462850830078125,12,46.368751525878906,-51.69375228881836
1729696947990851000,11.47285107421875,11.625,46.35000228881836,-51.78750228881836
1729696948000851000,11.482850830078124,11.512500762939453,46.25625228881836,-51.88125228881836
1729696948010851000,11.49285107421875,11.475000381469727,46.40625,-51.86250305175781
1729696948020851000,11.502850830078126,11.418750762939453,46.275001525878906,-52.14375305175781
1729696948030851000,11.51285107421875,11.231250762939453,46.368751525878906,-52.29375076293945
1729696948040851000,11.522850830078125,10.706250190734863,46.66875076293945,-52.462501525878906
1729696948050851000,11.53285107421875,10.012500762939453,46.70625305175781,-52.51875305175781
1729696948060851000,11.542850830078125,8.90625,46.38750076293945,-52.20000076293945
1729696948070851000,11.55285107421875,8.25,46.368751525878906,-51.91875076293945
1729696948080851000,11.562850830078125,7.106250286102295,46.48125076293945,-51.88125228881836
1729696948090851000,11.57285107421875,6.093750476837158,46.650001525878906,-51.431251525878906
1729696948100851000,11.582850830078126,4.650000095367432,46.5,-50.681251525878906
1729696948110851000,11.59285107421875,2.981250047683716,46.53750228881836,-49.61250305175781
1729696948120851000,11.602850830078125,1.7437500953674316,46.61250305175781,-48.656253814697266
1729696948130851000,11.61285107421875,0.5625,46.81875228881836,-47.36250305175781
1729696948140851000,11.622850830078125,-0.07500000298023224,47.23125076293945,-46.29375076293945
1729696948150851000,11.63285107421875,-1.125,47.493751525878906,-45.26250076293945
1729696948160851000,11.642850830078125,-1.818750023841858,47.94375228881836,-44.19375228881836
1729696948170851000,11.65285107421875,-2.418750047683716,48.150001525878906,-43.35000228881836
1729696948180851000,11.662850830078124,-2.606250047683716,48.54375076293945,-42.58125305175781
1729696948190851000,11.67285107421875,-2.7375001907348633,48.937503814697266,-41.962501525878906
1729696948200851000,11.682850830078126,-3.0375001430511475,49.25625228881836,-41.45625305175781
1729696948210851000,11.69285107421875,-2.7375001907348633,49.81875228881836,-41.025001525878906
1729696948220851000,11.702850830078125,-2.981250047683716,50.10000228881836,-40.80000305175781
1729696948230851000,11.71285107421875,-3.093750238418579,50.531253814697266,-40.63125228881836
1729696948240851000,11.722850830078125,-3.0562500953674316,50.70000076293945,-40.20000076293945
1729696948250851000,11.73285107421875,-3.3937501907348633,50.75625228881836,-40.05000305175781
1729696948260851000,11.742850830078124,-3.825000047683716,51.150001525878906,-39.67500305175781
1729696948270851000,11.75285107421875,-4.03125,51.26250076293945,-39.41250228881836
1729696948280851000,11.762850830078126,-4.556250095367432,51.58125305175781,-39.03750228881836
1729696948290851000,11.77285107421875,-5.100000381469727,51.39375305175781,-38.493751525878906
1729696948300851000,11.782850830078125,-5.325000286102295,51.337501525878906,-37.743751525878906
1729696948310851000,11.79285107421875,-5.34375,51.281253814697266,-37.181251525878906
1729696948320851000,11.802850830078125,-5.606250286102295,51.50625228881836,-36.525001525878906
1729696948330851000,11.81285107421875,-5.606250286102295,51.806251525878906,-35.79375076293945
1729696948340851000,11.822850830078124,-5.737500190734863,51.88125228881836,-35.32500076293945
1729696948350851000,11.83285107421875,-5.737500190734863,51.91875076293945,-34.80000305175781
1729696948360851000,11.842850830078126,-5.306250095367432,51.95625305175781,-34.42500305175781
1729696948370851000,11.85285107421875,-5.137500286102295,52.42500305175781,-34.23750305175781
1729696948380851000,11.862850830078125,-4.950000286102295,52.781253814697266,-33.95625305175781
1729696948390851000,11.87285107421875,-4.762500286102295,53.025001525878906,-33.54375076293945
1729696948400851000,11.882850830078125,-4.5,52.968753814697266,-33.46875
1729696948410851000,11.89285107421875,-4.331250190734863,53.08125305175781,-33.35625076293945
1729696948420851000,11.902850830078124,-3.8062500953674316,53.38125228881836,-33.45000076293945
1729696948430851000,11.91285107421875,-3.4875001907348633,53.681251525878906,-33.58125305175781
1729696948440851000,11.922850830078126,-3.0562500953674316,53.812503814697266,-33.84375
1729696948450851000,11.93285107421875,-2.625,53.73750305175781,-34.125
1729696948460851000,11.942850830078125,-2.1750001907348633,53.587501525878906,-34.556251525878906
1729696948470851000,11.95285107421875,-1.631250023841858,53.775001525878906,-34.85625076293945
1729696948480851000,11.962850830078125,-0.9187500476837158,53.718753814697266,-35.34375
1729696948490851000,11.97285107421875,-0.4312500059604645,53.45625305175781,-36
1729696948500851000,11.982850830078124,0.22500000894069672,52.968753814697266,-36.39375305175781
1729696948510851000,11.99285107421875,0.8062500357627869,52.42500305175781,-36.60000228881836
1729696948520851000,12.002850830078126,1.0875000953674316,51.95625305175781,-36.5625
1729696948530851000,12.01285107421875,1.2937500476837158,51.562503814697266,-36.712501525878906
1729696948540851000,12.022850830078125,1.162500023841858,51.281253814697266,-36.69375228881836
1729696948550851000,12.03285107421875,0.9000000357627869,50.66250228881836,-36.5625
1729696948560851000,12.042850830078125,0.8062500357627869,50.36250305175781,-36.11250305175781
1729696948570851000,12.05285107421875,0.6187500357627869,50.306251525878906,-35.55000305175781
1729696948580851000,12.062850830078125,0.4125000238418579,50.32500076293945,-35.00625228881836
1729696948590851000,12.07285107421875,0.26250001788139343,50.493751525878906,-34.51875305175781
1729696948600851000,12.082850830078126,0.5062500238418579,50.531253814697266,-34.3125
1729696948610851000,12.09285107421875,0.6000000238418579,50.60625076293945,-33.91875076293945
1729696948620851000,12.102850830078125,1.0875000953674316,51.03750228881836,-34.05000305175781
1729696948630851000,12.11285107421875,1.5750000476837158,51.187503814697266,-33.88125228881836
1729696948640851000,12.122850830078125,1.8562500476837158,51.468753814697266,-33.993751525878906
1729696948650851000,12.13285107421875,2.231250047683716,51.35625076293945,-33.69375228881836
1729696948660851000,12.142850830078125,2.4562501907348633,51.562503814697266,-33.58125305175781
1729696948670851000,12.15285107421875,2.6625001430511475,51.78750228881836,-33.46875
1729696948680851000,12.162850830078124,2.418750047683716,52.01250076293945,-33.20625305175781
1729696948690851000,12.17285107421875,1.9687501192092896,52.181251525878906,-33.150001525878906
1729696948700851000,12.182850830078126,1.537500023841858,52.23750305175781,-32.92500305175781
1729696948710851000,12.19285107421875,0.9187500476837158,52.44375228881836,-32.98125076293945
1729696948720851000,12.202850830078125,0.45000001788139343,52.76250076293945,-32.98125076293945
1729696948730851000,12.21285107421875,0.03750000149011612,52.968753814697266,-33.337501525878906
1729696948740851000,12.222850830078125,-0.48750001192092896,52.98750305175781,-33.88125228881836
1729696948750851000,12.23285107421875,-0.75,53.13750076293945,-34.5
1729696948760851000,12.242850830078124,-1.1062500476837158,53.28750228881836,-35.0625
1729696948770851000,12.25285107421875,-1.40625,53.587501525878906,-35.75625228881836
1729696948780851000,12.262850830078126,-1.631250023841858,53.73750305175781,-36.26250076293945
1729696948790851000,12.27285107421875,-1.6875001192092896,54.01875305175781,-36.69375228881836
1729696948800851000,12.282850830078125,-2.0250000953674316,54.000003814697266,-37.14375305175781
1729696948810851000,12.29285107421875,-2.0812501907348633,54.13125228881836,-37.85625076293945
1729696948820851000,12.302850830078125,-2.2875001430511475,54.337501525878906,-38.400001525878906
1729696948830851000,12.31285107421875,-2.3812501430511475,54.13125228881836,-38.71875
1729696948840851000,12.322850830078124,-2.3062500953674316,54.07500076293945,-39.243751525878906
1729696948850851000,12.33285107421875,-1.9312500953674316,53.83125305175781,-39.712501525878906
1729696948860851000,12.342850830078126,-1.6500000953674316,53.56875228881836,-40.14375305175781
1729696948870851000,12.35285107421875,-1.443750023841858,53.28750228881836,-40.76250076293945
1729696948880851000,12.362850830078125,-1.0125000476837158,53.10000228881836,-41.32500076293945
1729696948890851000,12.37285107421875,-0.65625,53.08125305175781,-41.56875228881836
1729696948900851000,12.382850830078125,-0.13125000894069672,52.72500228881836,-42.03750228881836
1729696948910851000,12.39285107421875,0.15000000596046448,52.837501525878906,-42.69375228881836
1729696948920851000,12.402850830078124,0.65625,52.38750076293945,-43.125
1729696948930851000,12.41285107421875,1.256250023841858,51.82500076293945,-43.76250076293945
1729696948940851000,12.422850830078126,2.1937501430511475,51.39375305175781,-44.23125076293945
1729696948950851000,12.43285107421875,3.093750238418579,50.75625228881836,-44.70000076293945
1729696948960851000,12.442850830078125,3.937500238418579,50.025001525878906,-45.41250228881836
1729696948970851000,12.45285107421875,5.137500286102295,49.16250228881836,-46.06875228881836
1729696948980851000,12.462850830078125,6.431250095367432,48.41250228881836,-46.556251525878906
1729696948990851000,12.47285107421875,7.593750476837158,47.41875076293945,-47.212501525878906
1729696949000851000,12.482850830078124,8.831250190734863,46.875,-47.71875
1729696949010851000,12.49285107421875,10.237500190734863,46.38750076293945,-48.056251525878906
1729696949020851000,12.502850830078126,10.96875,46.01250076293945,-48.48750305175781
1729696949030851000,12.51285107421875,11.943750381469727,45.84375,-49.05000305175781
1729696949040851000,12.522850830078125,12.80625057220459,45.375,-49.20000076293945
1729696949050851000,12.53285107421875,13.443750381469727,45.09375,-49.44375228881836
1729696949060851000,12.542850830078125,14.11875057220459,45.056251525878906,-49.42500305175781
1729696949070851000,12.55285107421875,14.643750190734863,44.88750076293945,-49.29375076293945
1729696949080851000,12.562850830078125,14.86875057220459,44.66250228881836,-49.462501525878906
1729696949090851000,12.57285107421875,15.018750190734863,44.64375305175781,-49.38750076293945
1729696949100851000,12.582850830078126,15.656250953674316,44.41875076293945,-49.63125228881836
1729696949110851000,12.59285107421875,15.843750953674316,44.118751525878906,-49.687503814697266
1729696949120851000,12.602850830078125,16.162500381469727,44.00625228881836,-49.743751525878906
1729696949130851000,12.61285107421875,16.42500114440918,43.78125,-49.95000076293945
1729696949140851000,12.622850830078125,16.275001525878906,43.556251525878906,-50.32500076293945
1729696949150851000,12.63285107421875,16.275001525878906,43.556251525878906,-50.56875228881836
1729696949160851000,12.642850830078125,16.443750381469727,43.368751525878906,-50.812503814697266
1729696949170851000,12.65285107421875,16.33125114440918,43.10625076293945,-51.13125228881836
1729696949180851000,12.662850830078124,16.106250762939453,42.806251525878906,-51.431251525878906
1729696949190851000,12.67285107421875,16.03125,42.73125076293945,-51.656253814697266
1729696949200851000,12.682850830078126,15.825000762939453,42.82500076293945,-51.993751525878906
1729696949210851000,12.69285107421875,15.450000762939453,42.95625305175781,-52.125003814697266
1729696949220851000,12.702850830078125,15.225000381469727,42.712501525878906,-51.95625305175781
1729696949230851000,12.71285107421875,14.793750762939453,42.48750305175781,-52.181251525878906
1729696949240851000,12.722850830078125,13.856250762939453,42.60000228881836,-52.01250076293945
1729696949250851000,12.73285107421875,12.90000057220459,42.73125076293945,-51.86250305175781
1729696949260851000,12.742850830078124,11.643750190734863,42.88125228881836,-51.281253814697266
1729696949270851000,12.75285107421875,10.106250762939453,43.16250228881836,-50.88750076293945
1729696949280851000,12.762850830078126,8.8125,43.29375076293945,-50.250003814697266
1729696949290851000,12.77285107421875,7.331250190734863,43.63125228881836,-49.61250305175781
1729696949300851000,12.782850830078125,5.550000190734863,44.23125076293945,-48.656253814697266
1729696949310851000,12.79285107421875,4.087500095367432,44.868751525878906,-47.4375
1729696949320851000,12.802850830078125,2.887500047683716,45.73125076293945,-46.51875305175781
1729696949330851000,12.81285107421875,1.9687501192092896,46.5,-45.26250076293945
1729696949340851000,12.822850830078124,1.0875000953674316,47.493751525878906,-44.0625
1729696949350851000,12.83285107421875,0.4125000238418579,47.90625,-42.78750228881836
1729696949360851000,12.842850830078126,-0.4687500298023224,48.806251525878906,-41.83125305175781
1729696949370851000,12.85285107421875,-1.21875,49.312503814697266,-40.650001525878906
1729696949380851000,12.862850830078125,-1.6687500476837158,49.89375305175781,-40.33125305175781
1729696949390851000,12.87285107421875,-2.043750047683716,50.41875076293945,-39.82500076293945
1729696949400851000,12.882850830078125,-2.5687501430511475,50.718753814697266,-39.11250305175781
1729696949410851000,12.89285107421875,-3.3375000953674316,50.75625228881836,-38.73750305175781
1729696949420851000,12.902850830078124,-3.9000000953674316,50.98125076293945,-38.32500076293945
1729696949430851000,12.91285107421875,-4.350000381469727,51.41250228881836,-38.10000228881836
1729696949440851000,12.922850830078126,-4.78125,51.48750305175781,-37.556251525878906
1729696949450851000,12.93285107421875,-5.137500286102295,51.82500076293945,-37.35000228881836
1729696949460851000,12.942850830078125,-5.362500190734863,51.78750228881836,-36.82500076293945
1729696949470851000,12.95285107421875,-5.493750095367432,52.01250076293945,-36.35625076293945
1729696949480851000,12.962850830078125,-5.306250095367432,52.218753814697266,-35.775001525878906
1729696949490851000,12.97285107421875,-5.043750286102295,52.781253814697266,-35.38125228881836
1729696949500851000,12.982850830078124,-4.818750381469727,52.593753814697266,-35.19375228881836
1729696949510851000,12.99285107421875,-4.443750381469727,52.556251525878906,-34.78125
1729696949520851000,13.002850830078126,-4.106250286102295,52.72500228881836,-34.462501525878906
1729696949530851000,13.01285107421875,-3.543750047683716,52.931251525878906,-34.087501525878906
1729696949540851000,13.022850830078125,-3.093750238418579,53.306251525878906,-33.712501525878906
1729696949550851000,13.03285107421875,-2.90625,53.212501525878906,-33.75
1729696949560851000,13.042850830078125,-2.6437501907348633,52.98750305175781,-33.993751525878906
1729696949570851000,13.05285107421875,-2.325000047683716,52.76250076293945,-33.900001525878906
1729696949580851000,13.062850830078125,-2.0062501430511475,52.837501525878906,-33.60000228881836
1729696949590851000,13.07285107421875,-1.8375000953674316,52.76250076293945,-33.63750076293945
1729696949600851000,13.082850830078126,-1.4625000953674316,52.76250076293945,-33.88125228881836
1729696949610851000,13.09285107421875,-1.1437500715255737,52.61250305175781,-34.14375305175781
1729696949620851000,13.102850830078125,-0.768750011920929,52.462501525878906,-34.650001525878906
1729696949630851000,13.11285107421875,-0.01875000074505806,52.61250305175781,-34.80000305175781
1729696949640851000,13.122850830078125,0.7312500476837158,52.687503814697266,-35.04375076293945
1729696949650851000,13.13285107421875,1.162500023841858,52.61250305175781,-35.55000305175781
1729696949660851000,13.142850830078125,1.7812501192092896,52.66875076293945,-36.056251525878906
1729696949670851000,13.15285107421875,2.6437501907348633,52.650001525878906,-36.13125228881836
1729696949680851000,13.162850830078124,3.3187501430511475,52.10625076293945,-36.243751525878906
1729696949690851000,13.17285107421875,3.6187500953674316,51.78750228881836,-35.94375228881836
1729696949700851000,13.182850830078126,3.937500238418579,51.468753814697266,-35.55000305175781
1729696949710851000,13.19285107421875,3.9750001430511475,50.83125305175781,-35.17500305175781
1729696949720851000,13.202850830078125,3.6000001430511475,50.531253814697266,-34.61250305175781
1729696949730851000,13.21285107421875,3.8062500953674316,50.32500076293945,-33.9375
1729696949740851000,13.222850830078125,3.9937500953674316,50.04375076293945,-33.525001525878906
1729696949750851000,13.23285107421875,4.012500286102295,50.23125076293945,-33.11250305175781
1729696949760851000,13.242850830078124,3.656250238418579,50.45625305175781,-32.775001525878906
1729696949770851000,13.25285107421875,3.9000000953674316,50.38125228881836,-32.75625228881836
1729696949780851000,13.262850830078126,4.237500190734863,50.66250228881836,-32.71875
1729696949790851000,13.27285107421875,4.462500095367432,50.88750076293945,-32.625
1729696949800851000,13.282850830078125,4.78125,50.962501525878906,-32.400001525878906
1729696949810851000,13.29285107421875,4.931250095367432,50.88750076293945,-32.47500228881836
1729696949820851000,13.302850830078125,4.556250095367432,51.20625305175781,-32.493751525878906
