time,seconds_elapsed,z,y,x
1729696936600851000,0.082850830078125,-276.9750061035156,157.74375915527344,81.30000305175781
1729696936610851000,0.09285107421875,-276.6000061035156,157.21875,81.82500457763672
1729696936620851000,0.102850830078125,-276.4125061035156,157.59375,81.28125
1729696936630851000,0.11285107421875,-276.5812683105469,157.83750915527344,81.01875305175781
1729696936640851000,0.122850830078125,-276.4875183105469,157.7062530517578,80.94375610351562
1729696936650851000,0.13285107421875,-276.5625,157.66876220703125,80.92500305175781
1729696936660851000,0.142850830078125,-276.3937683105469,157.53750610351562,80.7750015258789
1729696936670851000,0.15285107421875,-276.0375061035156,157.55625915527344,80.7750015258789
1729696936680851000,0.162850830078125,-276,157.6875,80.625
1729696936690851000,0.17285107421875,-276,157.95001220703125,80.3062515258789
1729696936700851000,0.182850830078125,-275.9250183105469,157.96875,80.38125610351562
1729696936710851000,0.19285107421875,-275.6812744140625,157.81875610351562,80.4000015258789
1729696936720851000,0.202850830078125,-275.4750061035156,158.13751220703125,80.4000015258789
1729696936730851000,0.21285107421875,-275.4375,158.2687530517578,80.3062515258789
1729696936740851000,0.222850830078125,-275.5687561035156,158.40000915527344,80.34375
1729696936750851000,0.23285107421875,-275.88751220703125,158.32501220703125,80.4375
1729696936760851000,0.242850830078125,-275.79376220703125,158.32501220703125,80.34375
1729696936770851000,0.25285107421875,-275.7750244140625,158.21250915527344,80.4937515258789
1729696936780851000,0.262850830078125,-275.88751220703125,157.95001220703125,80.6812515258789
1729696936790851000,0.27285107421875,-275.8312683105469,158.10000610351562,80.6812515258789
1729696936800851000,0.282850830078125,-276.0562744140625,157.66876220703125,80.75625610351562
1729696936810851000,0.29285107421875,-275.88751220703125,157.59375,80.8687515258789
1729696936820851000,0.302850830078125,-275.9250183105469,157.59375,81.0562515258789
1729696936830851000,0.31285107421875,-276.0187683105469,157.6875,81.09375
1729696936840851000,0.322850830078125,-276.09375,157.5,81.5625
1729696936850851000,0.33285107421875,-276.07501220703125,157.6875,81.45000457763672
1729696936860851000,0.342850830078125,-276.2250061035156,158.04376220703125,81.3375015258789
1729696936870851000,0.35285107421875,-276.28125,158.02500915527344,81.30000305175781
1729696936880851000,0.362850830078125,-276.3937683105469,158.13751220703125,81.26250457763672
1729696936890851000,0.37285107421875,-276.63751220703125,158.04376220703125,81.16875457763672
1729696936900851000,0.382850830078125,-276.6187744140625,158.02500915527344,81.11250305175781
1729696936910851000,0.39285107421875,-276.3937683105469,157.9875030517578,80.92500305175781
1729696936920851000,0.402850830078125,-276.4312744140625,158.23126220703125,80.73750305175781
1729696936930851000,0.41285107421875,-276.5250244140625,157.96875,80.53125
1729696936940851000,0.422850830078125,-276.45001220703125,157.63125610351562,80.625
1729696936950851000,0.43285107421875,-276.5250244140625,157.7062530517578,80.71875
1729696936960851000,0.442850830078125,-276.3000183105469,157.74375915527344,80.64375305175781
1729696936970851000,0.45285107421875,-276.3375244140625,157.85626220703125,80.8687515258789
1729696936980851000,0.462850830078125,-276.46875,157.6875,80.71875
1729696936990851000,0.47285107421875,-276.5625,157.6875,80.73750305175781
1729696937000851000,0.482850830078125,-276.3937683105469,157.6125030517578,80.64375305175781
1729696937010851000,0.49285107421875,-276.375,157.55625915527344,81.11250305175781
1729696937020851000,0.502850830078125,-276.2250061035156,157.6875,81.1500015258789
1729696937030851000,0.51285107421875,-276.2250061035156,157.27500915527344,81.13125610351562
1729696937040851000,0.522850830078125,-276.16876220703125,157.2375030517578,81.1500015258789
1729696937050851000,0.53285107421875,-276.1125183105469,157.20001220703125,81.09375
1729696937060851000,0.542850830078125,-276.1500244140625,157.29376220703125,81.35625457763672
1729696937070851000,0.55285107421875,-276.2437744140625,157.3312530517578,81.45000457763672
1729696937080851000,0.562850830078125,-276.3187561035156,157.21875,81.4312515258789
1729696937090851000,0.57285107421875,-276.28125,157.29376220703125,81.35625457763672
1729696937100851000,0.582850830078125,-276.2250061035156,157.3312530517578,81.01875305175781
1729696937110851000,0.59285107421875,-276.3375244140625,157.53750610351562,81.0562515258789
1729696937120851000,0.602850830078125,-276.4312744140625,157.6875,81.20625305175781
1729696937130851000,0.61285107421875,-276.3375244140625,157.6125030517578,80.9625015258789
1729696937140851000,0.622850830078125,-276,157.7062530517578,80.70000457763672
1729696937150851000,0.63285107421875,-275.8687744140625,157.59375,80.5875015258789
1729696937160851000,0.642850830078125,-275.8687744140625,157.63125610351562,80.6812515258789
1729696937170851000,0.65285107421875,-275.8500061035156,157.6875,80.66250610351562
1729696937180851000,0.662850830078125,-276.1875,157.55625915527344,80.70000457763672
1729696937190851000,0.67285107421875,-276.16876220703125,157.44375610351562,80.8687515258789
1729696937200851000,0.682850830078125,-276.1875,157.36875915527344,80.75625610351562
1729696937210851000,0.69285107421875,-276.1875,157.36875915527344,81.1875
1729696937220851000,0.702850830078125,-276.4125061035156,157.4250030517578,81.11250305175781
1729696937230851000,0.71285107421875,-276.3937683105469,157.6125030517578,81.4312515258789
1729696937240851000,0.722850830078125,-276.5625,157.63125610351562,81.63750457763672
1729696937250851000,0.73285107421875,-276.6937561035156,157.5187530517578,81.5250015258789
1729696937260851000,0.742850830078125,-276.46875,157.66876220703125,81.69375610351562
1729696937270851000,0.75285107421875,-276.375,157.8000030517578,81.63750457763672
1729696937280851000,0.762850830078125,-276.3375244140625,157.7062530517578,81.63750457763672
1729696937290851000,0.77285107421875,-276.4125061035156,157.6875,81.46875
1729696937300851000,0.782850830078125,-276.26251220703125,157.59375,81.8062515258789
1729696937310851000,0.79285107421875,-276.3937683105469,157.48126220703125,81.5625
1729696937320851000,0.802850830078125,-276.3375244140625,157.53750610351562,81.46875
1729696937330851000,0.81285107421875,-276.28125,157.55625915527344,81.67500305175781
1729696937340851000,0.822850830078125,-276.2437744140625,157.48126220703125,81.67500305175781
1729696937350851000,0.83285107421875,-276.4125061035156,157.48126220703125,81.63750457763672
1729696937360851000,0.842850830078125,-276.5062561035156,157.63125610351562,81.8062515258789
1729696937370851000,0.85285107421875,-276.35626220703125,157.5,81.82500457763672
1729696937380851000,0.862850830078125,-276.5812683105469,157.53750610351562,81.84375
1729696937390851000,0.87285107421875,-276.65625,157.53750610351562,81.88125610351562
1729696937400851000,0.882850830078125,-276.6000061035156,157.55625915527344,81.8062515258789
1729696937410851000,0.89285107421875,-276.4125061035156,157.6125030517578,81.84375
1729696937420851000,0.902850830078125,-276.45001220703125,157.65000915527344,81.88125610351562
1729696937430851000,0.91285107421875,-276.5062561035156,157.5,82.06875610351562
1729696937440851000,0.922850830078125,-276.54376220703125,157.40625,82.01250457763672
1729696937450851000,0.93285107421875,-276.46875,157.81875610351562,82.0875015258789
1729696937460851000,0.942850830078125,-276.28125,157.66876220703125,82.01250457763672
1729696937470851000,0.95285107421875,-276.1125183105469,157.7062530517578,82.125
1729696937480851000,0.962850830078125,-275.98126220703125,157.55625915527344,82.05000305175781
1729696937490851000,0.97285107421875,-276.2437744140625,157.59375,81.8062515258789
1729696937500851000,0.982850830078125,-276.3375244140625,157.59375,81.63750457763672
1729696937510851000,0.99285107421875,-276.26251220703125,157.78125,81.3375015258789
1729696937520851000,1.002850830078125,-276.1312561035156,157.8000030517578,81.67500305175781
1729696937530851000,1.01285107421875,-276.1500244140625,157.53750610351562,81.63750457763672
1729696937540851000,1.022850830078125,-276.1125183105469,157.6125030517578,81.69375610351562
1729696937550851000,1.03285107421875,-276.09375,157.65000915527344,81.73125457763672
1729696937560851000,1.042850830078125,-276.16876220703125,157.59375,81.97500610351562
1729696937570851000,1.05285107421875,-276.2437744140625,157.6125030517578,82.14375305175781
1729696937580851000,1.062850830078125,-276.1875,157.5,82.29375457763672
1729696937590851000,1.07285107421875,-275.8500061035156,157.4250030517578,82.42500305175781
1729696937600851000,1.082850830078125,-275.88751220703125,157.35000610351562,82.21875
1729696937610851000,1.09285107421875,-276.0187683105469,157.3125,82.16250610351562
1729696937620851000,1.102850830078125,-275.8500061035156,157.35000610351562,82.05000305175781
1729696937630851000,1.11285107421875,-275.7750244140625,157.0500030517578,82.06875610351562
1729696937640851000,1.122850830078125,-275.70001220703125,157.16250610351562,81.67500305175781
1729696937650851000,1.13285107421875,-275.53125,157.10626220703125,81.60000610351562
1729696937660851000,1.142850830078125,-275.34375,157.01251220703125,81.46875
1729696937670851000,1.15285107421875,-275.6812744140625,156.73126220703125,81.4312515258789
1729696937680851000,1.162850830078125,-275.7562561035156,156.73126220703125,81.35625457763672
1729696937690851000,1.17285107421875,-275.8312683105469,156.8625030517578,81.46875
1729696937700851000,1.182850830078125,-275.88751220703125,156.99375915527344,81.6187515258789
1729696937710851000,1.19285107421875,-275.8312683105469,157.25625610351562,81.5625
1729696937720851000,1.202850830078125,-275.8687744140625,157.2375030517578,81.9937515258789
1729696937730851000,1.21285107421875,-275.53125,157.16250610351562,81.95625305175781
1729696937740851000,1.222850830078125,-275.6437683105469,157.5187530517578,82.23750305175781
1729696937750851000,1.23285107421875,-275.5687561035156,157.85626220703125,82.35000610351562
1729696937760851000,1.242850830078125,-275.60626220703125,157.9875030517578,82.44375610351562
1729696937770851000,1.25285107421875,-275.23126220703125,157.85626220703125,82.40625
1729696937780851000,1.262850830078125,-275.2875061035156,157.59375,82.48125457763672
1729696937790851000,1.27285107421875,-275.4375,157.46250915527344,82.44375610351562
1729696937800851000,1.282850830078125,-275.4937744140625,157.44375610351562,82.20000457763672
1729696937810851000,1.29285107421875,-275.8312683105469,157.48126220703125,82.3687515258789
1729696937820851000,1.302850830078125,-276.1125183105469,157.3125,82.3125
1729696937830851000,1.31285107421875,-276.3187561035156,157.29376220703125,82.33125305175781
1729696937840851000,1.322850830078125,-276.07501220703125,157.36875915527344,82.25625610351562
1729696937850851000,1.33285107421875,-276.46875,157.57501220703125,82.23750305175781
1729696937860851000,1.342850830078125,-276.65625,157.66876220703125,82.1812515258789
1729696937870851000,1.35285107421875,-276.63751220703125,157.85626220703125,82.3125
1729696937880851000,1.362850830078125,-276.4125061035156,157.76251220703125,82.40625
1729696937890851000,1.37285107421875,-276.5625,157.875,82.21875
1729696937900851000,1.382850830078125,-276.28125,157.875,82.03125
1729696937910851000,1.39285107421875,-276.0187683105469,157.8000030517578,82.03125
1729696937920851000,1.402850830078125,-276.2062683105469,157.7062530517578,82.14375305175781
1729696937930851000,1.41285107421875,-276.3187561035156,157.66876220703125,81.88125610351562
1729696937940851000,1.422850830078125,-276,157.74375915527344,81.9000015258789
1729696937950851000,1.43285107421875,-276,157.53750610351562,81.88125610351562
1729696937960851000,1.442850830078125,-276.3187561035156,157.35000610351562,81.67500305175781
1729696937970851000,1.45285107421875,-276.07501220703125,157.18125915527344,81.73125457763672
1729696937980851000,1.462850830078125,-276.0187683105469,157.0500030517578,81.82500457763672
1729696937990851000,1.47285107421875,-276.0375061035156,157.08750915527344,81.7125015258789
1729696938000851000,1.482850830078125,-276.1125183105469,157.08750915527344,81.4312515258789
1729696938010851000,1.49285107421875,-275.6625061035156,157.01251220703125,81.6187515258789
1729696938020851000,1.502850830078125,-275.8500061035156,157.03125,81.5250015258789
1729696938030851000,1.51285107421875,-276.07501220703125,156.9375,81.3375015258789
1729696938040851000,1.522850830078125,-276.09375,157.27500915527344,81.54375457763672
1729696938050851000,1.53285107421875,-276.2250061035156,157.40625,81.6187515258789
1729696938060851000,1.542850830078125,-276.1875,157.35000610351562,81.84375
1729696938070851000,1.55285107421875,-276.1875,157.4250030517578,81.7125015258789
1729696938080851000,1.562850830078125,-276.09375,157.18125915527344,81.5625
1729696938090851000,1.57285107421875,-276.4312744140625,157.03125,81.76875305175781
1729696938100851000,1.582850830078125,-276.35626220703125,157.01251220703125,81.65625
1729696938110851000,1.59285107421875,-276.09375,157.10626220703125,81.73125457763672
1729696938120851000,1.602850830078125,-276.07501220703125,157.18125915527344,81.5250015258789
1729696938130851000,1.61285107421875,-276.1125183105469,157.1437530517578,81.5250015258789
1729696938140851000,1.622850830078125,-276.28125,157.21875,81.41250610351562
1729696938150851000,1.63285107421875,-276.28125,156.99375915527344,81.45000457763672
1729696938160851000,1.642850830078125,-276.2250061035156,157.20001220703125,81.75
1729696938170851000,1.65285107421875,-276.07501220703125,157.35000610351562,81.58125305175781
1729696938180851000,1.662850830078125,-276.2250061035156,157.125,81.63750457763672
1729696938190851000,1.67285107421875,-276.2250061035156,157.25625610351562,81.63750457763672
1729696938200851000,1.682850830078125,-276.2062683105469,157.27500915527344,81.5625
1729696938210851000,1.69285107421875,-276.07501220703125,157.27500915527344,81.4312515258789
1729696938220851000,1.702850830078125,-275.8687744140625,157.06875610351562,81.30000305175781
1729696938230851000,1.71285107421875,-275.8687744140625,157.06875610351562,81.16875457763672
1729696938240851000,1.722850830078125,-275.71875,156.88125610351562,80.92500305175781
1729696938250851000,1.73285107421875,-275.60626220703125,156.8625030517578,80.88750457763672
1729696938260851000,1.742850830078125,-275.5500183105469,157.06875610351562,81.16875457763672
1729696938270851000,1.75285107421875,-275.34375,157.1437530517578,81.375
1729696938280851000,1.762850830078125,-274.78125,157.16250610351562,81.60000610351562
1729696938290851000,1.77285107421875,-273.5625,157.46250915527344,81.7125015258789
1729696938300851000,1.782850830078125,-271.8937683105469,157.875,81.86250305175781
1729696938310851000,1.79285107421875,-269.4562683105469,158.4562530517578,82.59375
1729696938320851000,1.802850830078125,-266.8125,158.7375030517578,83.7750015258789
1729696938330851000,1.81285107421875,-263.51251220703125,158.7375030517578,85.35000610351562
1729696938340851000,1.822850830078125,-259.78125,158.51251220703125,87.6187515258789
1729696938350851000,1.83285107421875,-256.1812744140625,157.9875030517578,90.82500457763672
1729696938360851000,1.842850830078125,-253.01251220703125,157.10626220703125,94.91250610351562
1729696938370851000,1.85285107421875,-250.74375915527344,156.35626220703125,99.69375610351562
1729696938380851000,1.862850830078125,-249.5812530517578,155.6437530517578,104.79375457763672
1729696938390851000,1.87285107421875,-249.56251525878906,154.6125030517578,110.25000762939453
1729696938400851000,1.882850830078125,-250.35000610351562,154.1437530517578,115.8375015258789
1729696938410851000,1.89285107421875,-252.15000915527344,153.73126220703125,121.1812515258789
1729696938420851000,1.902850830078125,-254.79376220703125,153.80625915527344,125.75625610351562
1729696938430851000,1.91285107421875,-257.8312683105469,154.1437530517578,129.46875
1729696938440851000,1.922850830078125,-261.1500244140625,155.15625,132.5812530517578
1729696938450851000,1.93285107421875,-264.63751220703125,155.94375610351562,135.1125030517578
1729696938460851000,1.942850830078125,-267.9750061035156,156.84375,137.02500915527344
1729696938470851000,1.95285107421875,-271.1625061035156,157.78125,138.31875610351562
1729696938480851000,1.962850830078125,-274.3125,158.58750915527344,138.80625915527344
1729696938490851000,1.97285107421875,-277.3312683105469,159.3000030517578,138.8625030517578
1729696938500851000,1.982850830078125,-279.8062744140625,159.71250915527344,138.78750610351562
1729696938510851000,1.99285107421875,-282.1125183105469,160.44375610351562,138.7687530517578
1729696938520851000,2.002850830078125,-284.13751220703125,160.74375915527344,138.4875030517578
1729696938530851000,2.01285107421875,-285.7687683105469,160.875,138.09375
1729696938540851000,2.022850830078125,-287.2687683105469,161.19375610351562,137.98126220703125
1729696938550851000,2.03285107421875,-288.6187744140625,161.47500610351562,137.71875
1729696938560851000,2.042850830078125,-289.6500244140625,161.49375915527344,137.56875610351562
1729696938570851000,2.05285107421875,-290.53125,161.79376220703125,137.625
1729696938580851000,2.062850830078125,-291.1500244140625,161.79376220703125,137.58750915527344
1729696938590851000,2.07285107421875,-292.10626220703125,161.7375030517578,137.58750915527344
1729696938600851000,2.082850830078125,-293.1000061035156,161.53125,137.66250610351562
1729696938610851000,2.09285107421875,-294.26251220703125,161.34375,137.70001220703125
1729696938620851000,2.102850830078125,-295.1437683105469,160.96875,137.53125
1729696938630851000,2.11285107421875,-295.7437744140625,160.59375,137.2687530517578
1729696938640851000,2.122850830078125,-296.4750061035156,160.4250030517578,137.02500915527344
1729696938650851000,2.13285107421875,-297.09375,160.01251220703125,136.65000915527344
1729696938660851000,2.142850830078125,-298.1625061035156,160.08750915527344,136.25625610351562
1729696938670851000,2.15285107421875,-299.0625,159.63751220703125,135.69375610351562
1729696938680851000,2.162850830078125,-299.4375,159.16876220703125,135.24375915527344
1729696938690851000,2.17285107421875,-299.98126220703125,158.96250915527344,134.68125915527344
1729696938700851000,2.182850830078125,-300.4312744140625,158.71875,134.30625915527344
1729696938710851000,2.19285107421875,-300.82501220703125,158.4562530517578,133.83750915527344
1729696938720851000,2.202850830078125,-301.38751220703125,158.4562530517578,133.5187530517578
1729696938730851000,2.21285107421875,-301.95001220703125,158.34375,132.82501220703125
1729696938740851000,2.222850830078125,-302.32501220703125,157.95001220703125,132.5812530517578
1729696938750851000,2.23285107421875,-302.4000244140625,157.65000915527344,131.96250915527344
1729696938760851000,2.242850830078125,-302.88751220703125,157.57501220703125,131.38125610351562
1729696938770851000,2.25285107421875,-302.8125,157.59375,131.21250915527344
1729696938780851000,2.262850830078125,-303.3000183105469,157.5187530517578,130.8000030517578
1729696938790851000,2.27285107421875,-303.6937561035156,157.5187530517578,130.85626220703125
1729696938800851000,2.282850830078125,-303.7875061035156,157.18125915527344,130.7062530517578
1729696938810851000,2.29285107421875,-303.91876220703125,157.21875,130.8000030517578
1729696938820851000,2.302850830078125,-304.10626220703125,157.18125915527344,130.66876220703125
1729696938830851000,2.31285107421875,-304.29376220703125,157.3312530517578,131.02500915527344
1729696938840851000,2.322850830078125,-304.3312683105469,157.46250915527344,131.2687530517578
1729696938850851000,2.33285107421875,-304.7250061035156,157.08750915527344,131.11875915527344
1729696938860851000,2.342850830078125,-304.6500244140625,157.18125915527344,131.21250915527344
1729696938870851000,2.35285107421875,-304.66876220703125,157.08750915527344,131.11875915527344
1729696938880851000,2.362850830078125,-304.875,157.2375030517578,131.04376220703125
1729696938890851000,2.37285107421875,-304.9312744140625,157.0500030517578,131.1750030517578
1729696938900851000,2.382850830078125,-305.0625,157.20001220703125,131.13751220703125
1729696938910851000,2.39285107421875,-304.8937683105469,157.20001220703125,131.02500915527344
1729696938920851000,2.402850830078125,-304.95001220703125,157.40625,131.15625
1729696938930851000,2.41285107421875,-305.04376220703125,157.81875610351562,131.30625915527344
1729696938940851000,2.422850830078125,-305.0625,157.85626220703125,131.3625030517578
1729696938950851000,2.43285107421875,-305.3812561035156,157.95001220703125,131.53125
1729696938960851000,2.442850830078125,-305.6812744140625,157.81875610351562,131.75625610351562
1729696938970851000,2.45285107421875,-305.88751220703125,158.02500915527344,131.60626220703125
1729696938980851000,2.462850830078125,-306,158.00625610351562,131.77500915527344
1729696938990851000,2.47285107421875,-306.4125061035156,158.10000610351562,132.07501220703125
1729696939000851000,2.482850830078125,-306.6187744140625,157.76251220703125,132.03750610351562
1729696939010851000,2.49285107421875,-306.9000244140625,157.44375610351562,131.94375610351562
1729696939020851000,2.502850830078125,-307.3687744140625,157.16250610351562,131.88751220703125
1729696939030851000,2.51285107421875,-307.7437744140625,156.75,131.85000610351562
1729696939040851000,2.522850830078125,-307.95001220703125,156.4875030517578,131.86875915527344
1729696939050851000,2.53285107421875,-308.2687683105469,156,132
1729696939060851000,2.542850830078125,-308.3625183105469,155.53125,132.0187530517578
1729696939070851000,2.55285107421875,-308.9625244140625,154.85626220703125,131.53125
1729696939080851000,2.562850830078125,-309.6000061035156,154.40625,131.30625915527344
1729696939090851000,2.57285107421875,-310.03125,153.99375915527344,131.0625
1729696939100851000,2.582850830078125,-310.3500061035156,153.43125915527344,130.6125030517578
1729696939110851000,2.59285107421875,-310.7062683105469,153.03750610351562,130.18125915527344
1729696939120851000,2.602850830078125,-311.1187744140625,152.41876220703125,129.46875
1729696939130851000,2.61285107421875,-311.5500183105469,151.8000030517578,128.90625
1729696939140851000,2.622850830078125,-312.1500244140625,151.125,128.1750030517578
1729696939150851000,2.63285107421875,-312.6000061035156,150.54376220703125,127.72500610351562
1729696939160851000,2.642850830078125,-313.0875244140625,149.49375915527344,126.9937515258789
1729696939170851000,2.65285107421875,-313.6312561035156,148.44375610351562,126.46875762939453
1729696939180851000,2.662850830078125,-313.8937683105469,147.63751220703125,126.00000762939453
1729696939190851000,2.67285107421875,-314.23126220703125,146.8125,125.4000015258789
1729696939200851000,2.682850830078125,-314.625,145.9875030517578,124.96875762939453
1729696939210851000,2.69285107421875,-314.8125,145.4250030517578,124.40625762939453
1729696939220851000,2.702850830078125,-315.28125,144.50625610351562,123.91875457763672
1729696939230851000,2.71285107421875,-315.1875,143.8125,123.5250015258789
1729696939240851000,2.722850830078125,-315.0562744140625,143.47500610351562,123.18750762939453
1729696939250851000,2.73285107421875,-315.2250061035156,142.93125915527344,122.90625762939453
1729696939260851000,2.742850830078125,-315.5250244140625,142.25625610351562,122.60625457763672
1729696939270851000,2.75285107421875,-315.5250244140625,141.7687530517578,122.25000762939453
1729696939280851000,2.762850830078125,-315.5625,141.15000915527344,121.9312515258789
1729696939290851000,2.77285107421875,-315.84375,140.5500030517578,121.61250305175781
1729696939300851000,2.782850830078125,-315.6750183105469,140.40000915527344,121.33125305175781
1729696939310851000,2.79285107421875,-315.9750061035156,140.0812530517578,120.82500457763672
1729696939320851000,2.802850830078125,-316.1812744140625,139.81875610351562,120.50625610351562
1729696939330851000,2.81285107421875,-315.9937744140625,139.4250030517578,120.48750305175781
1729696939340851000,2.822850830078125,-315.91876220703125,139.38751220703125,120.30000305175781
1729696939350851000,2.83285107421875,-316.0687561035156,139.08750915527344,120.11250305175781
1729696939360851000,2.842850830078125,-316.10626220703125,139.125,120.26250457763672
1729696939370851000,2.85285107421875,-316.0875244140625,139.01251220703125,120.30000305175781
1729696939380851000,2.862850830078125,-316.20001220703125,138.78750610351562,120.20625305175781
1729696939390851000,2.87285107421875,-316.1625061035156,138.50625610351562,120.48750305175781
1729696939400851000,2.882850830078125,-316.2562561035156,138.375,120.6187515258789
1729696939410851000,2.89285107421875,-316.57501220703125,138.45001220703125,120.28125762939453
1729696939420851000,2.902850830078125,-316.8375244140625,138.22500610351562,120.13125610351562
1729696939430851000,2.91285107421875,-316.9312744140625,138.03750610351562,120.26250457763672
1729696939440851000,2.922850830078125,-317.13751220703125,137.77500915527344,119.88750457763672
1729696939450851000,2.93285107421875,-317.25,137.60626220703125,119.92500305175781
1729696939460851000,2.942850830078125,-317.4375,137.51251220703125,119.9625015258789
1729696939470851000,2.95285107421875,-317.6812744140625,137.51251220703125,120.00000762939453
1729696939480851000,2.962850830078125,-317.71875,137.2687530517578,119.92500305175781
1729696939490851000,2.97285107421875,-317.71875,137.1750030517578,120.0562515258789
1729696939500851000,2.982850830078125,-317.7750244140625,137.1750030517578,120.30000305175781
1729696939510851000,2.99285107421875,-317.5687561035156,137.10000610351562,120.13125610351562
1729696939520851000,3.002850830078125,-317.34375,137.21250915527344,120.30000305175781
1729696939530851000,3.01285107421875,-317.25,136.96875,120.22500610351562
1729696939540851000,3.022850830078125,-317.1750183105469,136.66876220703125,120.3375015258789
1729696939550851000,3.03285107421875,-317.0812683105469,136.5,120.39375305175781
1729696939560851000,3.042850830078125,-317.04376220703125,136.38751220703125,120.50625610351562
1729696939570851000,3.05285107421875,-317.04376220703125,136.29376220703125,120.54375457763672
1729696939580851000,3.062850830078125,-316.9125061035156,136.2375030517578,120.58125305175781
1729696939590851000,3.07285107421875,-317.04376220703125,136.1437530517578,120.67500305175781
1729696939600851000,3.082850830078125,-317.2875061035156,135.78750610351562,120.8062515258789
1729696939610851000,3.09285107421875,-317.2875061035156,135.73126220703125,120.86250305175781
1729696939620851000,3.102850830078125,-317.5687561035156,135.7687530517578,120.84375762939453
1729696939630851000,3.11285107421875,-317.5687561035156,135.73126220703125,120.93750762939453
1729696939640851000,3.122850830078125,-317.60626220703125,135.63751220703125,121.0875015258789
1729696939650851000,3.13285107421875,-317.3625183105469,135.71250915527344,121.25625610351562
1729696939660851000,3.142850830078125,-317.3812561035156,135.50625610351562,121.51875305175781
1729696939670851000,3.15285107421875,-317.5875244140625,135.50625610351562,121.87500762939453
1729696939680851000,3.162850830078125,-317.4000244140625,135.71250915527344,121.96875762939453
1729696939690851000,3.17285107421875,-317.53125,135.60000610351562,122.38125610351562
1729696939700851000,3.182850830078125,-317.1187744140625,135.5812530517578,122.60625457763672
1729696939710851000,3.19285107421875,-317.0062561035156,135.61875915527344,122.8687515258789
1729696939720851000,3.202850830078125,-317.0062561035156,135.71250915527344,123.0562515258789
1729696939730851000,3.21285107421875,-317.0812683105469,135.71250915527344,123.39375305175781
1729696939740851000,3.222850830078125,-316.9875183105469,135.97500610351562,123.86250305175781
1729696939750851000,3.23285107421875,-316.95001220703125,136.18125915527344,124.40625762939453
1729696939760851000,3.242850830078125,-316.95001220703125,136.29376220703125,125.36250305175781
1729696939770851000,3.25285107421875,-316.8937683105469,136.72500610351562,126.35625457763672
1729696939780851000,3.262850830078125,-316.66876220703125,137.38125610351562,127.81875610351562
1729696939790851000,3.27285107421875,-316.6500244140625,138.15000915527344,129.375
1729696939800851000,3.282850830078125,-316.3687744140625,139.53750610351562,131.5500030517578
1729696939810851000,3.29285107421875,-315.6937561035156,140.90625,133.74375915527344
1729696939820851000,3.302850830078125,-314.8312683105469,142.72500610351562,136.06875610351562
1729696939830851000,3.31285107421875,-313.78125,144.52500915527344,138.3000030517578
1729696939840851000,3.322850830078125,-312.6937561035156,146.4375,140.23126220703125
1729696939850851000,3.33285107421875,-311.2687683105469,148.65000915527344,142.4250030517578
1729696939860851000,3.342850830078125,-309.84375,150.69375610351562,144.41250610351562
1729696939870851000,3.35285107421875,-307.4250183105469,152.88751220703125,146.34375
1729696939880851000,3.362850830078125,-304.85626220703125,154.8000030517578,148.06875610351562
1729696939890851000,3.37285107421875,-302.53125,156.41250610351562,149.94375610351562
1729696939900851000,3.382850830078125,-299.8125,157.66876220703125,151.27500915527344
1729696939910851000,3.39285107421875,-297.0187683105469,159.3937530517578,152.88751220703125
1729696939920851000,3.402850830078125,-293.88751220703125,160.96875,154.3312530517578
1729696939930851000,3.41285107421875,-290.5687561035156,162.2062530517578,155.3625030517578
1729696939940851000,3.422850830078125,-287.4750061035156,163.36875915527344,156.09375
1729696939950851000,3.43285107421875,-284.5875244140625,164.5500030517578,156.9562530517578
1729696939960851000,3.442850830078125,-281.9437561035156,165.61875915527344,157.16250610351562
1729696939970851000,3.45285107421875,-279.35626220703125,166.81875610351562,156.97500610351562
1729696939980851000,3.462850830078125,-277.10626220703125,168.07501220703125,156.73126220703125
1729696939990851000,3.47285107421875,-274.7250061035156,168.80625915527344,156.50625610351562
1729696940000851000,3.482850830078125,-272.6812744140625,169.76251220703125,156.46875
1729696940010851000,3.49285107421875,-270.9750061035156,170.96250915527344,156.28125
1729696940020851000,3.502850830078125,-269.3625183105469,172.125,156.1875
1729696940030851000,3.51285107421875,-267.91876220703125,173.21250915527344,156.16876220703125
1729696940040851000,3.522850830078125,-266.4000244140625,174.3937530517578,156.375
1729696940050851000,3.53285107421875,-265.03125,175.8937530517578,156.71250915527344
1729696940060851000,3.542850830078125,-263.625,177.71250915527344,157.66876220703125
1729696940070851000,3.55285107421875,-262.21875,179.71875,158.625
1729696940080851000,3.562850830078125,-260.79376220703125,181.81875610351562,159.78750610351562
1729696940090851000,3.57285107421875,-259.125,183.50625610351562,161.34375
1729696940100851000,3.582850830078125,-257.1937561035156,184.96875,163.35000610351562
1729696940110851000,3.59285107421875,-255.31875610351562,186.09375,164.96250915527344
1729696940120851000,3.602850830078125,-253.29376220703125,186.9562530517578,166.8000030517578
1729696940130851000,3.61285107421875,-251.28750610351562,187.40625,168.8625030517578
1729696940140851000,3.622850830078125,-249.60000610351562,187.08750915527344,170.51251220703125
1729696940150851000,3.63285107421875,-248.30625915527344,186.35626220703125,171.9375
1729696940160851000,3.642850830078125,-247.01251220703125,184.76251220703125,172.96875
1729696940170851000,3.65285107421875,-246.13125610351562,183.31875610351562,173.66250610351562
1729696940180851000,3.662850830078125,-245.81251525878906,181.8000030517578,174.0187530517578
1729696940190851000,3.67285107421875,-245.62501525878906,179.90625,174.26251220703125
1729696940200851000,3.682850830078125,-245.53126525878906,177.75,174.375
1729696940210851000,3.69285107421875,-245.75625610351562,175.65000915527344,173.94375610351562
1729696940220851000,3.702850830078125,-245.96250915527344,173.34375,173.40000915527344
1729696940230851000,3.71285107421875,-246.18751525878906,170.98126220703125,172.72500610351562
1729696940240851000,3.722850830078125,-246.41250610351562,169.20001220703125,172.06875610351562
1729696940250851000,3.73285107421875,-246.7687530517578,167.4375,171.50625610351562
1729696940260851000,3.742850830078125,-246.93751525878906,165.54376220703125,170.86875915527344
1729696940270851000,3.75285107421875,-247.03126525878906,163.93125915527344,170.15625
1729696940280851000,3.762850830078125,-247.35000610351562,162.5812530517578,169.55625915527344
1729696940290851000,3.77285107421875,-247.29376220703125,161.11875915527344,169.06875610351562
1729696940300851000,3.782850830078125,-247.3312530517578,160.0500030517578,168.9375
1729696940310851000,3.79285107421875,-247.27500915527344,159.3000030517578,168.75
1729696940320851000,3.802850830078125,-247.36875915527344,158.41876220703125,168.7687530517578
1729696940330851000,3.81285107421875,-247.4250030517578,157.18125915527344,168.7687530517578
1729696940340851000,3.822850830078125,-247.6125030517578,155.98126220703125,168.97500610351562
1729696940350851000,3.83285107421875,-247.95001220703125,154.81875610351562,169.38751220703125
1729696940360851000,3.842850830078125,-248.2687530517578,153.46875,169.81875610351562
1729696940370851000,3.85285107421875,-248.9250030517578,152.32501220703125,170.4562530517578
1729696940380851000,3.862850830078125,-249.46876525878906,151.40625,170.90625
1729696940390851000,3.87285107421875,-250.2375030517578,150.24375915527344,171.65625
1729696940400851000,3.882850830078125,-251.32501220703125,149.1750030517578,172.0500030517578
1729696940410851000,3.89285107421875,-251.98126220703125,148.48126220703125,172.74375915527344
1729696940420851000,3.902850830078125,-252.9562530517578,148.03125,173.28750610351562
1729696940430851000,3.91285107421875,-253.81875610351562,147.60000610351562,173.71875
1729696940440851000,3.922850830078125,-254.90626525878906,147.6750030517578,174.15000915527344
1729696940450851000,3.93285107421875,-255.9562530517578,147.8625030517578,174.50625610351562
1729696940460851000,3.942850830078125,-256.96875,147.90000915527344,174.71250915527344
1729696940470851000,3.95285107421875,-257.71875,148.1437530517578,175.01251220703125
1729696940480851000,3.962850830078125,-258.1125183105469,148.36875915527344,175.65000915527344
1729696940490851000,3.97285107421875,-259.125,148.65000915527344,175.63125610351562
1729696940500851000,3.982850830078125,-259.7437744140625,148.96875,175.65000915527344
1729696940510851000,3.99285107421875,-260.4000244140625,149.3625030517578,175.93125915527344
1729696940520851000,4.002850830078125,-260.9625244140625,149.625,176.0625
1729696940530851000,4.01285107421875,-261.5812683105469,149.53125,176.25
1729696940540851000,4.022850830078125,-262.1812744140625,149.56875610351562,176.47500610351562
1729696940550851000,4.03285107421875,-262.8375244140625,149.66250610351562,176.625
1729696940560851000,4.042850830078125,-263.98126220703125,149.47500610351562,176.66250610351562
1729696940570851000,4.05285107421875,-264.8625183105469,149.34375,177.09375
1729696940580851000,4.062850830078125,-265.8187561035156,149.32501220703125,177.22500610351562
1729696940590851000,4.07285107421875,-266.9625244140625,149.41876220703125,177.26251220703125
1729696940600851000,4.082850830078125,-268.59375,149.53125,177.1125030517578
1729696940610851000,4.09285107421875,-269.625,149.71875,177.16876220703125
1729696940620851000,4.102850830078125,-270.5812683105469,149.94375610351562,176.86875915527344
1729696940630851000,4.11285107421875,-271.48126220703125,150.16876220703125,176.5500030517578
1729696940640851000,4.122850830078125,-272.2125244140625,150.4875030517578,176.47500610351562
1729696940650851000,4.13285107421875,-272.7750244140625,150.63751220703125,176.19375610351562
1729696940660851000,4.142850830078125,-273.2062683105469,150.75,176.2687530517578
1729696940670851000,4.15285107421875,-273.35626220703125,150.61875915527344,175.91250610351562
1729696940680851000,4.162850830078125,-272.9250183105469,150.375,176.0812530517578
1729696940690851000,4.17285107421875,-272.88751220703125,150.3000030517578,175.93125915527344
1729696940700851000,4.182850830078125,-272.9250183105469,150.22500610351562,176.0625
1729696940710851000,4.19285107421875,-272.7375183105469,150.09375,176.34375
1729696940720851000,4.202850830078125,-272.4750061035156,150.33750915527344,176.2687530517578
1729696940730851000,4.21285107421875,-272.1750183105469,150.54376220703125,176.28750610351562
1729696940740851000,4.222850830078125,-272.0625,150.73126220703125,176.21250915527344
1729696940750851000,4.23285107421875,-271.6875,151.27500915527344,176.13751220703125
1729696940760851000,4.242850830078125,-271.3312683105469,151.40625,175.8937530517578
1729696940770851000,4.25285107421875,-270.9937744140625,151.81875610351562,175.6875
1729696940780851000,4.262850830078125,-270.3375244140625,151.9875030517578,175.59375
1729696940790851000,4.27285107421875,-269.71875,152.28750610351562,174.9375
1729696940800851000,4.282850830078125,-268.875,152.49375915527344,174.375
1729696940810851000,4.29285107421875,-267.8625183105469,152.625,173.90625
1729696940820851000,4.302850830078125,-266.60626220703125,153.03750610351562,173.00625610351562
1729696940830851000,4.31285107421875,-265.8375244140625,153.2062530517578,172.21875
1729696940840851000,4.322850830078125,-265.0875244140625,153.6750030517578,171.28125
1729696940850851000,4.33285107421875,-263.90625,153.63751220703125,170.23126220703125
1729696940860851000,4.342850830078125,-263.1937561035156,153.97500610351562,169.38751220703125
1729696940870851000,4.35285107421875,-262.66876220703125,154.3312530517578,168.6750030517578
1729696940880851000,4.362850830078125,-262.1437683105469,154.65000915527344,168
1729696940890851000,4.37285107421875,-261.73126220703125,154.9875030517578,167.13751220703125
1729696940900851000,4.382850830078125,-261.82501220703125,154.93125915527344,166.6875
1729696940910851000,4.39285107421875,-261.84375,155.15625,166.3312530517578
1729696940920851000,4.402850830078125,-261.7875061035156,155.28750610351562,166.01251220703125
1729696940930851000,4.41285107421875,-262.1437683105469,155.58750915527344,165.80625915527344
1729696940940851000,4.422850830078125,-262.2375183105469,155.56875610351562,165.26251220703125
1729696940950851000,4.43285107421875,-262.48126220703125,155.19375610351562,164.8125
1729696940960851000,4.442850830078125,-262.7062683105469,154.76251220703125,164.25
1729696940970851000,4.45285107421875,-263.25,154.5,163.59375
1729696940980851000,4.462850830078125,-263.32501220703125,154.20001220703125,163.20001220703125
1729696940990851000,4.47285107421875,-263.2125244140625,153.8625030517578,162.8625030517578
1729696941000851000,4.482850830078125,-263.13751220703125,153.35626220703125,162.43125915527344
1729696941010851000,4.49285107421875,-263.2125244140625,152.85000610351562,161.94375610351562
1729696941020851000,4.502850830078125,-263.32501220703125,152.49375915527344,161.66250610351562
1729696941030851000,4.51285107421875,-263.1750183105469,152.2687530517578,161.30625915527344
1729696941040851000,4.522850830078125,-263.2875061035156,151.8937530517578,161.13751220703125
1729696941050851000,4.53285107421875,-263.15625,151.48126220703125,161.10000610351562
1729696941060851000,4.542850830078125,-263.0625,151.10626220703125,160.66876220703125
1729696941070851000,4.55285107421875,-262.76251220703125,150.69375610351562,160.4250030517578
1729696941080851000,4.562850830078125,-262.3687744140625,150.5625,160.125
1729696941090851000,4.57285107421875,-261.9000244140625,150.50625610351562,159.97500610351562
1729696941100851000,4.582850830078125,-261.3187561035156,150.43125915527344,159.65625
1729696941110851000,4.59285107421875,-260.7375183105469,150.52500915527344,159.4875030517578
1729696941120851000,4.602850830078125,-260.32501220703125,150.50625610351562,159.16876220703125
1729696941130851000,4.61285107421875,-259.875,150.61875915527344,158.75625610351562
1729696941140851000,4.622850830078125,-259.6125183105469,150.73126220703125,158.58750915527344
1729696941150851000,4.63285107421875,-259.48126220703125,150.73126220703125,158.0812530517578
1729696941160851000,4.642850830078125,-259.3687744140625,150.5625,157.46250915527344
1729696941170851000,4.65285107421875,-259.125,150.35626220703125,156.75
1729696941180851000,4.662850830078125,-259.3125,150.1125030517578,155.79376220703125
1729696941190851000,4.67285107421875,-259.6312561035156,149.86875915527344,154.53750610351562
1729696941200851000,4.682850830078125,-259.3687744140625,149.77500915527344,153.31875610351562
1729696941210851000,4.69285107421875,-259.21875,149.4375,151.8937530517578
1729696941220851000,4.702850830078125,-258.82501220703125,149.53125,150.22500610351562
1729696941230851000,4.71285107421875,-258.5812683105469,150,148.46250915527344
1729696941240851000,4.722850830078125,-258.2062683105469,150.54376220703125,146.70001220703125
1729696941250851000,4.73285107421875,-257.8312683105469,151.18125915527344,144.91876220703125
1729696941260851000,4.742850830078125,-257.1187744140625,152.0625,143.0625
1729696941270851000,4.75285107421875,-256.40625,153.1125030517578,141.5625
1729696941280851000,4.762850830078125,-255.78750610351562,154.21875,139.93125915527344
1729696941290851000,4.77285107421875,-255.2062530517578,155.53125,138.15000915527344
1729696941300851000,4.782850830078125,-255.03750610351562,156.46875,136.57501220703125
1729696941310851000,4.79285107421875,-254.71876525878906,157.0500030517578,135.1125030517578
1729696941320851000,4.802850830078125,-254.6437530517578,157.9875030517578,133.91250610351562
1729696941330851000,4.81285107421875,-254.8312530517578,158.66250610351562,132.2062530517578
1729696941340851000,4.822850830078125,-255.0187530517578,159.33750915527344,130.8937530517578
1729696941350851000,4.83285107421875,-254.98126220703125,159.54376220703125,129.13125610351562
1729696941360851000,4.842850830078125,-255.75001525878906,160.08750915527344,127.31250762939453
1729696941370851000,4.85285107421875,-256.3125,160.46250915527344,125.70000457763672
1729696941380851000,4.862850830078125,-256.7437744140625,160.95001220703125,123.82500457763672
1729696941390851000,4.87285107421875,-257.2687683105469,161.4375,122.2125015258789
1729696941400851000,4.882850830078125,-257.71875,161.70001220703125,120.16875457763672
1729696941410851000,4.89285107421875,-258.0187683105469,162.3000030517578,118.42500305175781
1729696941420851000,4.902850830078125,-258.5812683105469,162.82501220703125,116.81250762939453
1729696941430851000,4.91285107421875,-259.0875244140625,163.65000915527344,115.3687515258789
1729696941440851000,4.922850830078125,-258.9562683105469,164.25,114.13125610351562
1729696941450851000,4.93285107421875,-258.8625183105469,165.07501220703125,112.85625457763672
1729696941460851000,4.942850830078125,-258.6750183105469,165.78750610351562,111.46875762939453
1729696941470851000,4.95285107421875,-258.46875,166.66876220703125,109.87500762939453
1729696941480851000,4.962850830078125,-258.16876220703125,167.70001220703125,108.8062515258789
1729696941490851000,4.97285107421875,-257.4937744140625,168.52500915527344,107.70000457763672
1729696941500851000,4.982850830078125,-256.7250061035156,169.18125915527344,106.48125457763672
1729696941510851000,4.99285107421875,-256.40625,169.875,105.30000305175781
1729696941520851000,5.002850830078125,-255.63751220703125,170.66250610351562,104.43750762939453
1729696941530851000,5.01285107421875,-255.28126525878906,171.35626220703125,103.48125457763672
1729696941540851000,5.022850830078125,-254.70001220703125,172.1437530517578,102.69375610351562
1729696941550851000,5.03285107421875,-254.34376525878906,172.95001220703125,102.16875457763672
1729696941560851000,5.042850830078125,-254.30625915527344,173.40000915527344,101.04375457763672
1729696941570851000,5.05285107421875,-254.79376220703125,174.35626220703125,100.16250610351562
1729696941580851000,5.062850830078125,-255.69375610351562,175.29376220703125,99.45000457763672
1729696941590851000,5.07285107421875,-256.57501220703125,176.21250915527344,98.56875610351562
1729696941600851000,5.082850830078125,-258.65625,176.88751220703125,97.01250457763672
1729696941610851000,5.09285107421875,-260.4937744140625,177.5625,95.53125
1729696941620851000,5.102850830078125,-262.3687744140625,177.90000915527344,94.3125
1729696941630851000,5.11285107421875,-264.1125183105469,178.40625,92.4937515258789
1729696941640851000,5.122850830078125,-265.6500244140625,179.04376220703125,90.86250305175781
1729696941650851000,5.13285107421875,-267.1875,179.04376220703125,89.13750457763672
1729696941660851000,5.142850830078125,-267.82501220703125,179.25,87.01875305175781
1729696941670851000,5.15285107421875,-268.2750244140625,179.25,85.05000305175781
1729696941680851000,5.162850830078125,-268.03125,179.47500610351562,83.47500610351562
1729696941690851000,5.17285107421875,-267.5062561035156,179.86875915527344,81.97500610351562
1729696941700851000,5.182850830078125,-267,180.3937530517578,80.56875610351562
1729696941710851000,5.19285107421875,-266.23126220703125,180.6750030517578,79.53750610351562
1729696941720851000,5.202850830078125,-265.40625,180.90000915527344,78.58125305175781
1729696941730851000,5.21285107421875,-264.0375061035156,181.3312530517578,77.56875610351562
1729696941740851000,5.222850830078125,-262.8937683105469,181.4250030517578,76.91250610351562
1729696941750851000,5.23285107421875,-261.45001220703125,181.5187530517578,76.63125610351562
1729696941760851000,5.242850830078125,-259.8000183105469,181.5187530517578,76.40625
1729696941770851000,5.25285107421875,-258.1875,181.25625610351562,76.35000610351562
1729696941780851000,5.262850830078125,-256.8375244140625,181.2375030517578,76.3687515258789
1729696941790851000,5.27285107421875,-255.6750030517578,180.9562530517578,76.25625610351562
1729696941800851000,5.282850830078125,-254.75625610351562,180.71250915527344,76.51875305175781
1729696941810851000,5.29285107421875,-253.93125915527344,180.41250610351562,77.04375457763672
1729696941820851000,5.302850830078125,-253.59376525878906,180.24375915527344,77.26875305175781
1729696941830851000,5.31285107421875,-253.44375610351562,180.16876220703125,77.32500457763672
1729696941840851000,5.322850830078125,-253.4250030517578,180.05625915527344,77.4375
1729696941850851000,5.33285107421875,-253.50001525878906,179.98126220703125,77.51250457763672
1729696941860851000,5.342850830078125,-253.59376525878906,179.86875915527344,77.4937515258789
1729696941870851000,5.35285107421875,-253.74375915527344,179.90625,77.66250610351562
1729696941880851000,5.362850830078125,-253.68751525878906,180.05625915527344,77.56875610351562
1729696941890851000,5.37285107421875,-253.8937530517578,180.1125030517578,77.25
1729696941900851000,5.382850830078125,-253.81875610351562,180.26251220703125,77.17500305175781
1729696941910851000,5.39285107421875,-253.93125915527344,180.5625,77.25
1729696941920851000,5.402850830078125,-254.15626525878906,181.16250610351562,77.19375610351562
1729696941930851000,5.41285107421875,-254.66250610351562,181.65000915527344,76.96875
1729696941940851000,5.422850830078125,-255.24375915527344,182.0812530517578,76.89375305175781
1729696941950851000,5.43285107421875,-255.80625915527344,182.3625030517578,76.57500457763672
1729696941960851000,5.442850830078125,-256.57501220703125,182.5500030517578,76.53750610351562
1729696941970851000,5.45285107421875,-257.4375,183,76.81875610351562
1729696941980851000,5.462850830078125,-258.3187561035156,183.31875610351562,77.0625
1729696941990851000,5.47285107421875,-258.9937744140625,183.375,77.10000610351562
1729696942000851000,5.482850830078125,-259.875,183.33750915527344,77.1187515258789
1729696942010851000,5.49285107421875,-260.6812744140625,183.50625610351562,77.53125
1729696942020851000,5.502850830078125,-261.1312561035156,183.54376220703125,78.01875305175781
1729696942030851000,5.51285107421875,-261.7875061035156,183.65625,78.5625
1729696942040851000,5.522850830078125,-262.2562561035156,183.7687530517578,79.21875
1729696942050851000,5.53285107421875,-262.6312561035156,184.10626220703125,79.66875457763672
1729696942060851000,5.542850830078125,-263.2687683105469,184.3312530517578,80.19375610351562
1729696942070851000,5.55285107421875,-264,184.5187530517578,80.71875
1729696942080851000,5.562850830078125,-264.6000061035156,184.65000915527344,81.9000015258789
1729696942090851000,5.57285107421875,-265.0687561035156,184.875,82.91250610351562
1729696942100851000,5.582850830078125,-265.8375244140625,185.15625,83.70000457763672
1729696942110851000,5.59285107421875,-266.6625061035156,185.51251220703125,84.73125457763672
1729696942120851000,5.602850830078125,-267.3375244140625,185.88751220703125,85.57500457763672
1729696942130851000,5.61285107421875,-268.0875244140625,185.88751220703125,86.60625457763672
1729696942140851000,5.622850830078125,-268.7250061035156,186.1875,87.5625
1729696942150851000,5.63285107421875,-269.2875061035156,186.9562530517578,88.63125610351562
1729696942160851000,5.642850830078125,-269.70001220703125,187.27500915527344,89.4937515258789
1729696942170851000,5.65285107421875,-270.1125183105469,187.44375610351562,90.28125
1729696942180851000,5.662850830078125,-270.2250061035156,187.63125610351562,90.82500457763672
1729696942190851000,5.67285107421875,-270.3937683105469,187.83750915527344,91.53750610351562
1729696942200851000,5.682850830078125,-270.84375,187.95001220703125,91.96875
1729696942210851000,5.69285107421875,-271.03125,188.00625610351562,92.41875457763672
1729696942220851000,5.702850830078125,-271.4625244140625,188.21250915527344,92.70000457763672
1729696942230851000,5.71285107421875,-271.6125183105469,187.85626220703125,92.92500305175781
1729696942240851000,5.722850830078125,-272.04376220703125,188.11875915527344,92.9625015258789
1729696942250851000,5.73285107421875,-272.79376220703125,188.32501220703125,93.16875457763672
1729696942260851000,5.742850830078125,-273.4125061035156,188.2687530517578,93.48750305175781
1729696942270851000,5.75285107421875,-273.5250244140625,188.19375610351562,93.7125015258789
1729696942280851000,5.762850830078125,-273.45001220703125,188.11875915527344,94.29375457763672
1729696942290851000,5.77285107421875,-273.63751220703125,188.1750030517578,94.38750457763672
1729696942300851000,5.782850830078125,-273.3187561035156,188.19375610351562,94.63125610351562
1729696942310851000,5.79285107421875,-273.3937683105469,188.1750030517578,94.91250610351562
1729696942320851000,5.802850830078125,-273.1312561035156,187.85626220703125,95.13750457763672
1729696942330851000,5.81285107421875,-272.5875244140625,187.8000030517578,94.96875
1729696942340851000,5.822850830078125,-272.2125244140625,187.85626220703125,95.0625
1729696942350851000,5.83285107421875,-272.1187744140625,187.95001220703125,95.0625
1729696942360851000,5.842850830078125,-272.0625,188.0812530517578,94.35000610351562
1729696942370851000,5.85285107421875,-271.48126220703125,188.21250915527344,94.3687515258789
1729696942380851000,5.862850830078125,-270.9375,188.23126220703125,94.3125
1729696942390851000,5.87285107421875,-270.35626220703125,188.4562530517578,94.14375305175781
1729696942400851000,5.882850830078125,-269.90625,188.56875610351562,93.9000015258789
1729696942410851000,5.89285107421875,-269.4750061035156,188.40000915527344,93.86250305175781
1729696942420851000,5.902850830078125,-268.8000183105469,188.4375,93.63750457763672
1729696942430851000,5.91285107421875,-267.84375,188.5500030517578,93.3375015258789
1729696942440851000,5.922850830078125,-266.88751220703125,188.32501220703125,93.48750305175781
1729696942450851000,5.93285107421875,-266.04376220703125,188.13751220703125,93.1500015258789
1729696942460851000,5.942850830078125,-265.5187683105469,187.96875,92.7750015258789
1729696942470851000,5.95285107421875,-264.7125244140625,187.91250610351562,92.7750015258789
1729696942480851000,5.962850830078125,-264.2062683105469,187.76251220703125,92.88750457763672
1729696942490851000,5.97285107421875,-263.70001220703125,187.66876220703125,92.85000610351562
1729696942500851000,5.982850830078125,-263.51251220703125,187.40625,93.03750610351562
1729696942510851000,5.99285107421875,-263.53125,187.01251220703125,93.03750610351562
1729696942520851000,6.002850830078125,-263.60626220703125,186.9375,93.11250305175781
1729696942530851000,6.01285107421875,-263.7375183105469,186.88125610351562,93.50625610351562
1729696942540851000,6.022850830078125,-263.8125,186.65625,93.8062515258789
1729696942550851000,6.03285107421875,-263.7562561035156,186.35626220703125,93.75
1729696942560851000,6.042850830078125,-263.3625183105469,186.26251220703125,93.84375
1729696942570851000,6.05285107421875,-263.0625,186.28125,93.9937515258789
1729696942580851000,6.062850830078125,-262.85626220703125,186.5812530517578,94.06875610351562
1729696942590851000,6.07285107421875,-262.4437561035156,186.82501220703125,94.0875015258789
1729696942600851000,6.082850830078125,-262.1812744140625,187.1437530517578,94.0875015258789
1729696942610851000,6.09285107421875,-262.2750244140625,187.59375,94.125
1729696942620851000,6.102850830078125,-262.03125,188.04376220703125,94.3125
1729696942630851000,6.11285107421875,-262.1437683105469,188.4375,94.76250457763672
1729696942640851000,6.122850830078125,-262.5187683105469,189,94.70625305175781
1729696942650851000,6.13285107421875,-262.76251220703125,189.45001220703125,94.875
1729696942660851000,6.142850830078125,-262.96875,189.5625,94.91250610351562
1729696942670851000,6.15285107421875,-263.5500183105469,190.1437530517578,95.28750610351562
1729696942680851000,6.162850830078125,-264.1125183105469,190.44375610351562,95.41875457763672
1729696942690851000,6.17285107421875,-264.2437744140625,190.40625,95.4000015258789
1729696942700851000,6.182850830078125,-264.7125244140625,190.4250030517578,95.4000015258789
1729696942710851000,6.19285107421875,-265.2375183105469,190.48126220703125,94.98750305175781
1729696942720851000,6.202850830078125,-265.7250061035156,190.29376220703125,94.91250610351562
1729696942730851000,6.21285107421875,-266.1937561035156,190.2375030517578,94.66875457763672
1729696942740851000,6.222850830078125,-266.6437683105469,190.35000610351562,94.3125
1729696942750851000,6.23285107421875,-266.8500061035156,189.8625030517578,93.9937515258789
1729696942760851000,6.242850830078125,-267,189.82501220703125,93.76875305175781
1729696942770851000,6.25285107421875,-267.35626220703125,189.7687530517578,93.58125305175781
1729696942780851000,6.262850830078125,-267.73126220703125,189.6750030517578,93.1875
1729696942790851000,6.27285107421875,-267.9562683105469,189.60000610351562,92.98125457763672
1729696942800851000,6.282850830078125,-267.91876220703125,189.54376220703125,92.56875610351562
1729696942810851000,6.29285107421875,-267.6750183105469,189.4875030517578,92.3062515258789
1729696942820851000,6.302850830078125,-267.4875183105469,189.28125,92.10000610351562
1729696942830851000,6.31285107421875,-267.1875,189.33750915527344,91.72500610351562
1729696942840851000,6.322850830078125,-266.8687744140625,189.13125610351562,91.51875305175781
1729696942850851000,6.33285107421875,-266.1937561035156,188.94375610351562,90.9375
1729696942860851000,6.342850830078125,-265.2375183105469,188.8125,90.58125305175781
1729696942870851000,6.35285107421875,-264.2437744140625,188.90625,89.92500305175781
1729696942880851000,6.362850830078125,-262.95001220703125,188.85000610351562,89.6812515258789
1729696942890851000,6.37285107421875,-262.21875,188.90625,89.26875305175781
1729696942900851000,6.382850830078125,-261.1875,188.77500915527344,88.70625305175781
1729696942910851000,6.39285107421875,-259.96875,188.70001220703125,88.3125
1729696942920851000,6.402850830078125,-258.8062744140625,188.40000915527344,87.75
1729696942930851000,6.41285107421875,-257.8312683105469,188.2687530517578,87.41250610351562
1729696942940851000,6.422850830078125,-256.9875183105469,188.00625610351562,87.28125
1729696942950851000,6.43285107421875,-256.29376220703125,187.6875,87.09375
1729696942960851000,6.442850830078125,-255.80625915527344,187.6125030517578,86.8687515258789
1729696942970851000,6.45285107421875,-254.77500915527344,186.9562530517578,86.60625457763672
1729696942980851000,6.462850830078125,-254.21250915527344,186.61875915527344,86.15625
1729696942990851000,6.47285107421875,-253.5187530517578,186.05625915527344,85.8375015258789
1729696943000851000,6.482850830078125,-252.8625030517578,186.03750610351562,85.53750610351562
1729696943010851000,6.49285107421875,-252.37501525878906,185.8312530517578,85.44375610351562
1729696943020851000,6.502850830078125,-251.32501220703125,185.88751220703125,84.97500610351562
1729696943030851000,6.51285107421875,-250.59376525878906,185.6437530517578,84.67500305175781
1729696943040851000,6.522850830078125,-249.90000915527344,185.23126220703125,84.13125610351562
1729696943050851000,6.53285107421875,-249.4875030517578,185.11875915527344,83.66250610351562
1729696943060851000,6.542850830078125,-248.77500915527344,184.81875610351562,83.4937515258789
1729696943070851000,6.55285107421875,-248.47500610351562,184.6875,83.23125457763672
1729696943080851000,6.562850830078125,-248.47500610351562,184.40625,82.8375015258789
1729696943090851000,6.57285107421875,-248.28750610351562,184.4250030517578,82.3125
1729696943100851000,6.582850830078125,-248.66250610351562,184.25625610351562,82.14375305175781
1729696943110851000,6.59285107421875,-248.6437530517578,184.125,82.125
1729696943120851000,6.602850830078125,-248.71876525878906,184.1437530517578,81.97500610351562
1729696943130851000,6.61285107421875,-248.7375030517578,184.03125,81.9000015258789
1729696943140851000,6.622850830078125,-249.05625915527344,184.40625,82.0875015258789
1729696943150851000,6.63285107421875,-249.22500610351562,184.66876220703125,81.91875457763672
1729696943160851000,6.642850830078125,-249.13125610351562,184.85626220703125,82.0875015258789
1729696943170851000,6.65285107421875,-249.22500610351562,184.91250610351562,82.14375305175781
1729696943180851000,6.662850830078125,-249.1125030517578,185.04376220703125,82.06875610351562
1729696943190851000,6.67285107421875,-249.15000915527344,185.10000610351562,82.01250457763672
1729696943200851000,6.682850830078125,-249.13125610351562,185.28750610351562,82.05000305175781
1729696943210851000,6.69285107421875,-249.26251220703125,185.71875,82.2750015258789
1729696943220851000,6.702850830078125,-249.24375915527344,185.7375030517578,82.21875
1729696943230851000,6.71285107421875,-249.60000610351562,185.9250030517578,82.38750457763672
1729696943240851000,6.722850830078125,-250.36875915527344,185.9250030517578,82.33125305175781
1729696943250851000,6.73285107421875,-251.4562530517578,185.8312530517578,82.23750305175781
1729696943260851000,6.742850830078125,-253.1437530517578,185.85000610351562,82.40625
1729696943270851000,6.75285107421875,-254.7375030517578,185.98126220703125,82.48125457763672
1729696943280851000,6.762850830078125,-256.76251220703125,186.13125610351562,82.72500610351562
1729696943290851000,6.77285107421875,-258.73126220703125,185.86875915527344,82.98750305175781
1729696943300851000,6.782850830078125,-260.51251220703125,185.86875915527344,83.53125
1729696943310851000,6.79285107421875,-262.1437683105469,186.0187530517578,84.11250305175781
1729696943320851000,6.802850830078125,-263.13751220703125,186.35626220703125,85.14375305175781
1729696943330851000,6.81285107421875,-264.07501220703125,186.73126220703125,86.32500457763672
1729696943340851000,6.822850830078125,-264.63751220703125,186.84375,87.26250457763672
1729696943350851000,6.83285107421875,-265.3500061035156,187.125,88.16250610351562
1729696943360851000,6.842850830078125,-265.78125,187.27500915527344,89.0250015258789
1729696943370851000,6.85285107421875,-266.41876220703125,187.7062530517578,89.71875
1729696943380851000,6.862850830078125,-267.3000183105469,188.0625,90.35625457763672
1729696943390851000,6.87285107421875,-267.9562683105469,188.32501220703125,90.8062515258789
1729696943400851000,6.882850830078125,-269.04376220703125,188.56875610351562,91.10625457763672
1729696943410851000,6.89285107421875,-269.9437561035156,188.8125,91.05000305175781
1729696943420851000,6.902850830078125,-270.65625,189.16876220703125,91.10625457763672
1729696943430851000,6.91285107421875,-271.6125183105469,189.22500610351562,91.57500457763672
1729696943440851000,6.922850830078125,-272.5875244140625,189.54376220703125,92.04375457763672
1729696943450851000,6.93285107421875,-273.35626220703125,189.88125610351562,92.55000305175781
1729696943460851000,6.942850830078125,-273.9750061035156,189.91876220703125,93.1500015258789
1729696943470851000,6.95285107421875,-274.9125061035156,190.0500030517578,94.10625457763672
1729696943480851000,6.962850830078125,-275.5687561035156,190.01251220703125,94.70625305175781
1729696943490851000,6.97285107421875,-276.0375061035156,189.84375,95.71875
1729696943500851000,6.982850830078125,-276.8625183105469,190.0500030517578,96.73125457763672
1729696943510851000,6.99285107421875,-277.3125,190.46250915527344,97.40625762939453
1729696943520851000,7.002850830078125,-277.4437561035156,190.40625,97.9312515258789
1729696943530851000,7.01285107421875,-277.48126220703125,190.3125,98.3062515258789
1729696943540851000,7.022850830078125,-278.0062561035156,190.36875915527344,98.13750457763672
1729696943550851000,7.03285107421875,-278.23126220703125,190.08750915527344,98.06250762939453
1729696943560851000,7.042850830078125,-278.0062561035156,190.10626220703125,98.0250015258789
1729696943570851000,7.05285107421875,-278.3812561035156,190.1437530517578,97.78125762939453
1729696943580851000,7.062850830078125,-278.3812561035156,189.84375,97.5562515258789
1729696943590851000,7.07285107421875,-278.2875061035156,189.61875915527344,97.2750015258789
1729696943600851000,7.082850830078125,-278.3062744140625,189.69375610351562,96.97500610351562
1729696943610851000,7.09285107421875,-278.4000244140625,189.60000610351562,96.46875762939453
1729696943620851000,7.102850830078125,-277.6500244140625,189.7687530517578,96.56250762939453
1729696943630851000,7.11285107421875,-277.1625061035156,190.03125,95.9625015258789
1729696943640851000,7.122850830078125,-276.8625183105469,190.01251220703125,95.64375305175781
1729696943650851000,7.13285107421875,-275.9625244140625,190.21875,95.4000015258789
1729696943660851000,7.142850830078125,-275.1187744140625,190.38751220703125,94.57500457763672
1729696943670851000,7.15285107421875,-274.3687744140625,190.25625610351562,94.03125
1729696943680851000,7.162850830078125,-273.4125061035156,190.18125915527344,93.63750457763672
1729696943690851000,7.17285107421875,-272.4937744140625,189.97500610351562,93.50625610351562
1729696943700851000,7.182850830078125,-272.1937561035156,189.5625,93.35625457763672
1729696943710851000,7.19285107421875,-272.0812683105469,189.1125030517578,93.48750305175781
1729696943720851000,7.202850830078125,-272.1187744140625,188.85000610351562,93.75
1729696943730851000,7.21285107421875,-272.32501220703125,188.32501220703125,93.75
1729696943740851000,7.222850830078125,-272.60626220703125,188.02500915527344,94.29375457763672
1729696943750851000,7.23285107421875,-272.9250183105469,187.74375915527344,94.76250457763672
1729696943760851000,7.242850830078125,-273.4312744140625,187.44375610351562,94.95000457763672
1729696943770851000,7.25285107421875,-273.5812683105469,187.65000915527344,95.0250015258789
1729696943780851000,7.262850830078125,-273.45001220703125,187.875,95.0625
1729696943790851000,7.27285107421875,-273.1875,188.23126220703125,95.19375610351562
1729696943800851000,7.282850830078125,-272.9625244140625,188.49375915527344,95.00625610351562
1729696943810851000,7.29285107421875,-272.53125,188.8312530517578,95.1187515258789
1729696943820851000,7.302850830078125,-271.85626220703125,189.0187530517578,94.81875610351562
1729696943830851000,7.31285107421875,-271.1625061035156,189.4875030517578,94.80000305175781
1729696943840851000,7.322850830078125,-270.5625,189.84375,95.08125305175781
1729696943850851000,7.33285107421875,-270.1500244140625,190.125,95.36250305175781
1729696943860851000,7.342850830078125,-270.3000183105469,190.10626220703125,95.38125610351562
1729696943870851000,7.35285107421875,-270.54376220703125,190.03125,95.4000015258789
1729696943880851000,7.362850830078125,-270.84375,189.88125610351562,95.6812515258789
1729696943890851000,7.37285107421875,-271.2562561035156,189.88125610351562,95.83125305175781
1729696943900851000,7.382850830078125,-271.7437744140625,189.99375915527344,96.22500610351562
1729696943910851000,7.39285107421875,-272.34375,190.03125,96.35625457763672
1729696943920851000,7.402850830078125,-272.79376220703125,189.91876220703125,96.37500762939453
1729696943930851000,7.41285107421875,-273.16876220703125,189.84375,96.30000305175781
1729696943940851000,7.422850830078125,-273.0375061035156,190.25625610351562,96.37500762939453
1729696943950851000,7.43285107421875,-272.6625061035156,190.5187530517578,96.2437515258789
1729696943960851000,7.442850830078125,-272.51251220703125,190.6875,95.88750457763672
1729696943970851000,7.45285107421875,-272.4562683105469,190.91250610351562,95.51250457763672
1729696943980851000,7.462850830078125,-272.8500061035156,191.32501220703125,95.15625
1729696943990851000,7.47285107421875,-273.1125183105469,191.5500030517578,94.70625305175781
1729696944000851000,7.482850830078125,-273.6937561035156,191.85000610351562,94.20000457763672
1729696944010851000,7.49285107421875,-274.2750244140625,192.24375915527344,93.9000015258789
1729696944020851000,7.502850830078125,-274.85626220703125,192.41250610351562,93.46875
1729696944030851000,7.51285107421875,-275.34375,192.63751220703125,93.30000305175781
1729696944040851000,7.522850830078125,-275.5500183105469,193.16250610351562,93.22500610351562
1729696944050851000,7.53285107421875,-275.6437683105469,193.3312530517578,92.85000610351562
1729696944060851000,7.542850830078125,-275.625,193.21876525878906,92.56875610351562
1729696944070851000,7.55285107421875,-275.6812744140625,193.16250610351562,92.13750457763672
1729696944080851000,7.562850830078125,-275.4750061035156,193.08750915527344,91.80000305175781
1729696944090851000,7.57285107421875,-275.4937744140625,192.69375610351562,91.0875015258789
1729696944100851000,7.582850830078125,-275.2875061035156,192.31875610351562,90.65625
1729696944110851000,7.59285107421875,-274.875,191.85000610351562,90.26250457763672
1729696944120851000,7.602850830078125,-274.5187683105469,190.96875,89.5875015258789
1729696944130851000,7.61285107421875,-274.03125,190.3312530517578,89.25
1729696944140851000,7.622850830078125,-273.2437744140625,189.6750030517578,88.80000305175781
1729696944150851000,7.63285107421875,-272.60626220703125,188.96250915527344,88.25625610351562
1729696944160851000,7.642850830078125,-271.7250061035156,188.40000915527344,87.82500457763672
1729696944170851000,7.65285107421875,-270.3000183105469,187.91250610351562,87.4312515258789
1729696944180851000,7.662850830078125,-269.15625,187.44375610351562,86.8687515258789
1729696944190851000,7.67285107421875,-268.3125,187.1437530517578,86.25
1729696944200851000,7.682850830078125,-267.46875,187.06875610351562,85.875
1729696944210851000,7.69285107421875,-266.41876220703125,186.97500610351562,85.4625015258789
1729696944220851000,7.702850830078125,-265.20001220703125,186.73126220703125,84.86250305175781
1729696944230851000,7.71285107421875,-263.79376220703125,186.5812530517578,84.5250015258789
1729696944240851000,7.722850830078125,-262.9312744140625,186.41250610351562,84.16875457763672
1729696944250851000,7.73285107421875,-262.1812744140625,186.375,84.09375
1729696944260851000,7.742850830078125,-261.63751220703125,186.07501220703125,83.7750015258789
1729696944270851000,7.75285107421875,-260.8687744140625,186.05625915527344,83.51250457763672
1729696944280851000,7.762850830078125,-260.23126220703125,185.94375610351562,83.19375610351562
1729696944290851000,7.77285107421875,-259.8000183105469,185.8312530517578,82.8375015258789
1729696944300851000,7.782850830078125,-259.7437744140625,185.9250030517578,82.875
1729696944310851000,7.79285107421875,-259.7437744140625,185.90625,82.59375
1729696944320851000,7.802850830078125,-259.2375183105469,185.96250915527344,82.61250305175781
1729696944330851000,7.81285107421875,-259.03125,185.71875,82.4625015258789
1729696944340851000,7.822850830078125,-258.3187561035156,185.51251220703125,82.3687515258789
1729696944350851000,7.83285107421875,-258.0187683105469,185.0625,82.03125
1729696944360851000,7.842850830078125,-257.6625061035156,184.875,81.75
1729696944370851000,7.85285107421875,-257.2875061035156,184.59375,81.69375610351562
1729696944380851000,7.862850830078125,-257.1187744140625,184.38751220703125,81.54375457763672
1729696944390851000,7.87285107421875,-256.7250061035156,184.2375030517578,81.41250610351562
1729696944400851000,7.882850830078125,-256.4625244140625,184.0500030517578,81.0562515258789
1729696944410851000,7.89285107421875,-256.3687744140625,184.0500030517578,80.75625610351562
1729696944420851000,7.902850830078125,-256.4625244140625,184.10626220703125,80.625
1729696944430851000,7.91285107421875,-256.3312683105469,184.10626220703125,80.47500610351562
1729696944440851000,7.922850830078125,-255.97500610351562,183.84375,80.28750610351562
1729696944450851000,7.93285107421875,-255.97500610351562,184.03125,80.13750457763672
1729696944460851000,7.942850830078125,-255.99375915527344,183.99375915527344,79.875
1729696944470851000,7.95285107421875,-256.3687744140625,184.03125,79.7437515258789
1729696944480851000,7.962850830078125,-256.8375244140625,184.18125915527344,79.8375015258789
1729696944490851000,7.97285107421875,-257.53125,184.16250610351562,80.04375457763672
1729696944500851000,7.982850830078125,-258.46875,184.44375610351562,80.25
1729696944510851000,7.99285107421875,-259.3125,184.74375915527344,80.625
1729696944520851000,8.002850830078126,-260.6812744140625,185.1750030517578,81.26250457763672
1729696944530851000,8.01285107421875,-261.84375,185.0625,81.73125457763672
1729696944540851000,8.022850830078125,-262.9312744140625,185.0625,82.35000610351562
1729696944550851000,8.03285107421875,-264.0375061035156,185.38125610351562,83.23125457763672
1729696944560851000,8.042850830078125,-265.2750244140625,185.3625030517578,84
1729696944570851000,8.05285107421875,-266.1000061035156,185.8312530517578,84.75
1729696944580851000,8.062850830078125,-266.9625244140625,186.09375,85.61250305175781
1729696944590851000,8.07285107421875,-267.9937744140625,186.33750915527344,86.66250610351562
1729696944600851000,8.082850830078126,-268.7062683105469,186.90000915527344,87.3375015258789
1729696944610851000,8.09285107421875,-269.60626220703125,187.63125610351562,87.8062515258789
1729696944620851000,8.102850830078125,-270.5812683105469,188.2687530517578,88.35000610351562
1729696944630851000,8.11285107421875,-271.6875,188.66250610351562,88.89375305175781
1729696944640851000,8.122850830078125,-272.71875,189.0187530517578,89.5875015258789
1729696944650851000,8.13285107421875,-273.75,189.16876220703125,89.90625
1729696944660851000,8.142850830078125,-275.0250244140625,189.35626220703125,90.46875
1729696944670851000,8.15285107421875,-275.9625244140625,189.61875915527344,90.88125610351562
1729696944680851000,8.162850830078124,-277.01251220703125,189.65625,91.44375610351562
1729696944690851000,8.17285107421875,-277.6875,189.61875915527344,92.4375
1729696944700851000,8.182850830078126,-278.41876220703125,189.60000610351562,93.01875305175781
1729696944710851000,8.19285107421875,-278.70001220703125,189.4875030517578,93.65625
1729696944720851000,8.202850830078125,-278.9437561035156,189.88125610351562,93.9937515258789
1729696944730851000,8.21285107421875,-279.1125183105469,190.06875610351562,94.8375015258789
1729696944740851000,8.222850830078125,-279.1500244140625,190.06875610351562,95.3062515258789
1729696944750851000,8.23285107421875,-279.16876220703125,190.20001220703125,95.625
1729696944760851000,8.242850830078124,-279.1312561035156,190.16250610351562,95.94375610351562
1729696944770851000,8.25285107421875,-279.6000061035156,190.16250610351562,96.2437515258789
1729696944780851000,8.262850830078126,-279.7125244140625,190.2375030517578,96.91875457763672
1729696944790851000,8.27285107421875,-279.91876220703125,190.44375610351562,97.16250610351562
1729696944800851000,8.282850830078125,-279.7875061035156,190.4250030517578,97.61250305175781
1729696944810851000,8.29285107421875,-279.84375,190.35000610351562,97.66875457763672
1729696944820851000,8.302850830078125,-279.63751220703125,190.59375,97.81875610351562
1729696944830851000,8.31285107421875,-279.5250244140625,190.7062530517578,97.9312515258789
1729696944840851000,8.322850830078124,-279.1875,190.85626220703125,97.89375305175781
1729696944850851000,8.33285107421875,-278.5500183105469,191.00625610351562,97.66875457763672
1729696944860851000,8.342850830078126,-278.04376220703125,191.0812530517578,97.16250610351562
1729696944870851000,8.35285107421875,-277.29376220703125,191.19375610351562,96.88125610351562
1729696944880851000,8.362850830078125,-276.6187744140625,191.32501220703125,96.31875610351562
1729696944890851000,8.37285107421875,-275.8312683105469,191.70001220703125,95.88750457763672
1729696944900851000,8.382850830078125,-275.04376220703125,191.94375610351562,95.25
1729696944910851000,8.39285107421875,-274.0875244140625,191.8312530517578,94.61250305175781
1729696944920851000,8.402850830078124,-273.2062683105469,191.96250915527344,94.03125
1729696944930851000,8.41285107421875,-272.4750061035156,191.90625,93.67500305175781
1729696944940851000,8.422850830078126,-271.8000183105469,191.70001220703125,93.41250610351562
1729696944950851000,8.43285107421875,-271.66876220703125,191.13751220703125,93.46875
1729696944960851000,8.442850830078125,-271.4625244140625,190.76251220703125,93.63750457763672
1729696944970851000,8.45285107421875,-271.5,190.16250610351562,93.9000015258789
1729696944980851000,8.462850830078125,-271.38751220703125,189.75,94.21875
1729696944990851000,8.47285107421875,-271.6875,189.50625610351562,94.72500610351562
1729696945000851000,8.482850830078124,-271.8937683105469,189.2062530517578,95.32500457763672
1729696945010851000,8.49285107421875,-271.9125061035156,188.94375610351562,95.56875610351562
1729696945020851000,8.502850830078126,-271.8000183105469,188.96250915527344,95.9625015258789
1729696945030851000,8.51285107421875,-271.1625061035156,189.31875610351562,96.20625305175781
1729696945040851000,8.522850830078125,-271.10626220703125,189.3000030517578,96.13125610351562
1729696945050851000,8.53285107421875,-270.5625,189.375,96.03750610351562
1729696945060851000,8.542850830078125,-270.1312561035156,189.28125,95.92500305175781
1729696945070851000,8.55285107421875,-269.3625183105469,189.35626220703125,95.92500305175781
1729696945080851000,8.562850830078125,-268.6125183105469,189.375,95.98125457763672
1729696945090851000,8.57285107421875,-268.57501220703125,189.375,96.01875305175781
1729696945100851000,8.582850830078126,-268.6500244140625,189.375,96.01875305175781
1729696945110851000,8.59285107421875,-269.25,189.28125,95.88750457763672
1729696945120851000,8.602850830078125,-269.5875244140625,189.16876220703125,96.11250305175781
1729696945130851000,8.61285107421875,-270.3187561035156,189.16876220703125,96.56250762939453
1729696945140851000,8.622850830078125,-271.125,189.1875,96.91875457763672
1729696945150851000,8.63285107421875,-272.1937561035156,189.46875,96.95625305175781
1729696945160851000,8.642850830078125,-273.3187561035156,189.65625,96.91875457763672
1729696945170851000,8.65285107421875,-273.6937561035156,189.8625030517578,97.14375305175781
1729696945180851000,8.662850830078124,-274.01251220703125,189.9562530517578,97.2750015258789
1729696945190851000,8.67285107421875,-274.0875244140625,190.27500915527344,97.42500305175781
1729696945200851000,8.682850830078126,-274.2562561035156,190.72500610351562,97.20000457763672
1729696945210851000,8.69285107421875,-274.1437683105469,190.96875,96.9000015258789
1729696945220851000,8.702850830078125,-274.20001220703125,191.34375,96.60000610351562
1729696945230851000,8.71285107421875,-274.1437683105469,191.5500030517578,96.09375762939453
1729696945240851000,8.722850830078125,-274.1812744140625,191.68125915527344,95.83125305175781
1729696945250851000,8.73285107421875,-274.3312683105469,191.96250915527344,95.41875457763672
1729696945260851000,8.742850830078124,-274.125,192.3000030517578,94.8375015258789
1729696945270851000,8.75285107421875,-273.9000244140625,192.52500915527344,94.125
1729696945280851000,8.762850830078126,-273.5250244140625,192.5812530517578,93.54375457763672
1729696945290851000,8.77285107421875,-273.2062683105469,192.75001525878906,92.66250610351562
1729696945300851000,8.782850830078125,-272.8500061035156,192.56251525878906,92.10000610351562
1729696945310851000,8.79285107421875,-272.51251220703125,192.45001220703125,91.7437515258789
1729696945320851000,8.802850830078125,-272.2875061035156,192.3000030517578,91.33125305175781
1729696945330851000,8.81285107421875,-271.78125,192.07501220703125,90.73125457763672
1729696945340851000,8.822850830078124,-271.5187683105469,191.71875,90.30000305175781
1729696945350851000,8.83285107421875,-271.125,191.21250915527344,89.92500305175781
1729696945360851000,8.842850830078126,-270.6750183105469,190.57501220703125,89.8125
1729696945370851000,8.85285107421875,-270.5625,190.01251220703125,89.55000305175781
1729696945380851000,8.862850830078125,-270.09375,189.50625610351562,89.34375
1729696945390851000,8.87285107421875,-269.3625183105469,189.0187530517578,88.98750305175781
1729696945400851000,8.882850830078125,-268.5187683105469,188.41876220703125,88.57500457763672
1729696945410851000,8.89285107421875,-267.6187744140625,187.85626220703125,88.1812515258789
1729696945420851000,8.902850830078124,-266.90625,187.27500915527344,87.82500457763672
1729696945430851000,8.91285107421875,-265.96875,186.90000915527344,87.58125305175781
1729696945440851000,8.922850830078126,-264.9562683105469,186.5812530517578,86.83125305175781
1729696945450851000,8.93285107421875,-263.7750244140625,185.98126220703125,86.32500457763672
1729696945460851000,8.942850830078125,-262.875,185.71875,85.7437515258789
1729696945470851000,8.95285107421875,-262.29376220703125,185.11875915527344,85.40625
1729696945480851000,8.962850830078125,-261.6750183105469,184.85626220703125,84.9937515258789
1729696945490851000,8.97285107421875,-261.5062561035156,184.63125610351562,84.8062515258789
1729696945500851000,8.982850830078124,-261.1125183105469,184.38751220703125,84.6187515258789
1729696945510851000,8.99285107421875,-261.07501220703125,184.21875,84.30000305175781
1729696945520851000,9.002850830078126,-261.16876220703125,184.21875,84.45000457763672
1729696945530851000,9.01285107421875,-261.3000183105469,184.3125,84.45000457763672
1729696945540851000,9.022850830078125,-261.2437744140625,184.20001220703125,84.1875
1729696945550851000,9.03285107421875,-261.07501220703125,184.3125,84.20625305175781
1729696945560851000,9.042850830078125,-260.9625244140625,184.3125,84.1500015258789
1729696945570851000,9.05285107421875,-260.8125,184.2375030517578,83.88750457763672
1729696945580851000,9.062850830078125,-260.7750244140625,184.3312530517578,83.56875610351562
1729696945590851000,9.07285107421875,-260.6812744140625,184.21875,83.17500305175781
1729696945600851000,9.082850830078126,-260.51251220703125,183.9562530517578,82.80000305175781
1729696945610851000,9.09285107421875,-260.2687683105469,184.16250610351562,82.5
1729696945620851000,9.102850830078125,-260.1000061035156,184.03125,82.4625015258789
1729696945630851000,9.11285107421875,-259.9312744140625,183.91876220703125,82.25625610351562
1729696945640851000,9.122850830078125,-259.6500244140625,183.88125610351562,82.05000305175781
1729696945650851000,9.13285107421875,-259.125,183.6750030517578,82.125
1729696945660851000,9.142850830078125,-258.82501220703125,183.60000610351562,82.14375305175781
1729696945670851000,9.15285107421875,-258.6937561035156,183.65625,82.35000610351562
1729696945680851000,9.162850830078124,-258.9750061035156,183.63751220703125,82.20000457763672
1729696945690851000,9.17285107421875,-259.40625,183.43125915527344,82.20000457763672
1729696945700851000,9.182850830078126,-260.1000061035156,183.4875030517578,82.2750015258789
1729696945710851000,9.19285107421875,-260.8312683105469,183.50625610351562,82.40625
1729696945720851000,9.202850830078125,-262.0875244140625,183.46875,82.70625305175781
1729696945730851000,9.21285107421875,-263.25,183.8625030517578,83.15625
1729696945740851000,9.222850830078125,-264.63751220703125,183.99375915527344,83.56875610351562
1729696945750851000,9.23285107421875,-265.8187561035156,184.29376220703125,84.13125610351562
1729696945760851000,9.242850830078124,-266.8125,184.7062530517578,85.21875
1729696945770851000,9.25285107421875,-268.0500183105469,185.02500915527344,86.28750610351562
1729696945780851000,9.262850830078126,-269.0062561035156,185.4375,87.20625305175781
1729696945790851000,9.27285107421875,-269.9437561035156,186,88.03125
1729696945800851000,9.282850830078125,-270.65625,186.5625,88.8375015258789
1729696945810851000,9.29285107421875,-271.6875,187.06875610351562,89.55000305175781
1729696945820851000,9.302850830078125,-272.2125244140625,187.57501220703125,90.2437515258789
1729696945830851000,9.31285107421875,-273.1312561035156,187.9875030517578,90.86250305175781
1729696945840851000,9.322850830078124,-273.9562683105469,188.3625030517578,91.21875
1729696945850851000,9.33285107421875,-274.4250183105469,188.71875,91.42500305175781
1729696945860851000,9.342850830078126,-275.1187744140625,189.13125610351562,91.95000457763672
1729696945870851000,9.35285107421875,-275.8125,189.33750915527344,92.38125610351562
1729696945880851000,9.362850830078125,-276.4125061035156,189.63751220703125,92.92500305175781
1729696945890851000,9.37285107421875,-276.9937744140625,189.61875915527344,93.20625305175781
1729696945900851000,9.382850830078125,-277.78125,189.7687530517578,93.86250305175781
1729696945910851000,9.39285107421875,-278.0625,189.78750610351562,94.23750305175781
1729696945920851000,9.402850830078124,-278.0812683105469,190.01251220703125,95.15625
1729696945930851000,9.41285107421875,-278.3625183105469,190.3125,95.88750457763672
1729696945940851000,9.422850830078126,-278.4750061035156,190.3312530517578,96.41250610351562
1729696945950851000,9.43285107421875,-278.4562683105469,190.4250030517578,97.03125762939453
1729696945960851000,9.442850830078125,-278.4375,190.4250030517578,97.6500015258789
1729696945970851000,9.45285107421875,-278.3062744140625,190.57501220703125,98.4000015258789
1729696945980851000,9.462850830078125,-278.1750183105469,190.76251220703125,98.73750305175781
1729696945990851000,9.47285107421875,-277.96875,190.95001220703125,99.5250015258789
1729696946000851000,9.482850830078124,-278.1000061035156,190.96875,99.69375610351562
1729696946010851000,9.49285107421875,-278.0812683105469,190.93125915527344,99.84375762939453
1729696946020851000,9.502850830078126,-278.0250244140625,191.02500915527344,99.8062515258789
1729696946030851000,9.51285107421875,-277.8937683105469,191.11875915527344,99.84375762939453
1729696946040851000,9.522850830078125,-277.40625,191.34375,99.56250762939453
1729696946050851000,9.53285107421875,-277.01251220703125,191.625,99.1500015258789
1729696946060851000,9.542850830078125,-276.4875183105469,191.53125,98.9625015258789
1729696946070851000,9.55285107421875,-276.09375,191.30625915527344,98.26875305175781
1729696946080851000,9.562850830078125,-275.4562683105469,191.38125610351562,97.7437515258789
1729696946090851000,9.57285107421875,-274.57501220703125,191.4562530517578,97.1812515258789
1729696946100851000,9.582850830078126,-273.63751220703125,191.58750915527344,96.9000015258789
1729696946110851000,9.59285107421875,-272.7750244140625,191.5500030517578,96.46875762939453
1729696946120851000,9.602850830078125,-272.0812683105469,191.66250610351562,95.90625
1729696946130851000,9.61285107421875,-271.4250183105469,191.53125,95.70000457763672
1729696946140851000,9.622850830078125,-270.91876220703125,191.4562530517578,95.38125610351562
1729696946150851000,9.63285107421875,-270.26251220703125,191.1750030517578,95.41875457763672
1729696946160851000,9.642850830078125,-269.9625244140625,190.74375915527344,95.47500610351562
1729696946170851000,9.65285107421875,-270,190.10626220703125,95.90625
1729696946180851000,9.662850830078124,-270.1312561035156,189.41250610351562,96.1500015258789
1729696946190851000,9.67285107421875,-270.4312744140625,188.98126220703125,96.48750305175781
1729696946200851000,9.682850830078126,-270.6187744140625,188.28750610351562,97.01250457763672
1729696946210851000,9.69285107421875,-270.8625183105469,187.93125915527344,97.50000762939453
1729696946220851000,9.702850830078125,-270.9937744140625,187.81875610351562,97.91250610351562
1729696946230851000,9.71285107421875,-271.20001220703125,188.28750610351562,98.04375457763672
1729696946240851000,9.722850830078125,-271.2375183105469,188.56875610351562,98.1187515258789
1729696946250851000,9.73285107421875,-270.9000244140625,188.96250915527344,98.0250015258789
1729696946260851000,9.742850830078124,-270.45001220703125,189.28125,97.89375305175781
1729696946270851000,9.75285107421875,-269.88751220703125,189.65625,97.8375015258789
1729696946280851000,9.762850830078126,-269.3812561035156,189.91876220703125,97.95000457763672
1729696946290851000,9.77285107421875,-268.95001220703125,190.27500915527344,97.63125610351562
1729696946300851000,9.782850830078125,-268.5,190.48126220703125,97.2750015258789
1729696946310851000,9.79285107421875,-268.48126220703125,190.20001220703125,97.21875762939453
1729696946320851000,9.802850830078125,-268.5562744140625,190.0500030517578,97.0875015258789
1729696946330851000,9.81285107421875,-269.0062561035156,190.3312530517578,96.9937515258789
1729696946340851000,9.822850830078124,-269.70001220703125,190.7062530517578,96.91875457763672
1729696946350851000,9.83285107421875,-270.46875,190.8937530517578,96.54375457763672
1729696946360851000,9.842850830078126,-271.0687561035156,191.0812530517578,96.18750762939453
1729696946370851000,9.85285107421875,-271.40625,191.38125610351562,96.13125610351562
1729696946380851000,9.862850830078125,-271.85626220703125,191.3625030517578,95.9625015258789
1729696946390851000,9.87285107421875,-272.2125244140625,191.40000915527344,95.79375457763672
1729696946400851000,9.882850830078125,-272.6625061035156,191.77500915527344,95.625
1729696946410851000,9.89285107421875,-272.8500061035156,191.70001220703125,95.28750610351562
1729696946420851000,9.902850830078124,-272.7562561035156,191.7375030517578,94.96875
1729696946430851000,9.91285107421875,-272.71875,191.86875915527344,94.80000305175781
1729696946440851000,9.922850830078126,-272.9250183105469,191.94375610351562,94.72500610351562
1729696946450851000,9.93285107421875,-273.16876220703125,191.8312530517578,94.61250305175781
1729696946460851000,9.942850830078125,-273.4875183105469,192.33750915527344,94.48125457763672
1729696946470851000,9.95285107421875,-273.375,192.60000610351562,94.10625457763672
1729696946480851000,9.962850830078125,-273.1312561035156,192.61875915527344,93.69375610351562
1729696946490851000,9.97285107421875,-272.9437561035156,192.71250915527344,93.46875
1729696946500851000,9.982850830078124,-273,192.65626525878906,93.0562515258789
1729696946510851000,9.99285107421875,-273,192.52500915527344,92.7750015258789
1729696946520851000,10.002850830078126,-273.07501220703125,192.52500915527344,92.23125457763672
1729696946530851000,10.01285107421875,-273.0562744140625,192.24375915527344,91.57500457763672
1729696946540851000,10.022850830078125,-272.6625061035156,191.77500915527344,91.0875015258789
1729696946550851000,10.03285107421875,-272.6437683105469,191.47500610351562,90.5250015258789
1729696946560851000,10.042850830078125,-272.34375,191.11875915527344,90.1875
1729696946570851000,10.05285107421875,-272.0625,190.55625915527344,89.8687515258789
1729696946580851000,10.062850830078125,-271.4250183105469,190.0500030517578,89.53125
1729696946590851000,10.07285107421875,-270.84375,189.28125,89.10000610351562
1729696946600851000,10.082850830078126,-269.8500061035156,188.53125,88.61250305175781
1729696946610851000,10.09285107421875,-269.1187744140625,187.91250610351562,88.2750015258789
1729696946620851000,10.102850830078125,-268.4437561035156,187.125,87.82500457763672
1729696946630851000,10.11285107421875,-267.375,186.60000610351562,87.39375305175781
1729696946640851000,10.122850830078125,-266.3062744140625,186.03750610351562,86.98125457763672
1729696946650851000,10.13285107421875,-265.29376220703125,185.66250610351562,86.34375
1729696946660851000,10.142850830078125,-264.375,185.25,85.89375305175781
1729696946670851000,10.15285107421875,-263.0250244140625,185.10000610351562,85.3125
1729696946680851000,10.162850830078124,-262.2562561035156,184.95001220703125,84.88125610351562
1729696946690851000,10.17285107421875,-261.2062683105469,184.57501220703125,84.11250305175781
1729696946700851000,10.182850830078126,-260.34375,184.5187530517578,83.66250610351562
1729696946710851000,10.19285107421875,-259.3687744140625,184.10626220703125,83.08125305175781
1729696946720851000,10.202850830078125,-258.5812683105469,183.90000915527344,82.42500305175781
1729696946730851000,10.21285107421875,-257.9250183105469,183.45001220703125,82.01250457763672
1729696946740851000,10.222850830078125,-257.4562683105469,183.07501220703125,81.375
1729696946750851000,10.23285107421875,-257.23126220703125,183.03750610351562,81.16875457763672
1729696946760851000,10.242850830078124,-256.96875,182.7375030517578,80.66250610351562
1729696946770851000,10.25285107421875,-256.7437744140625,182.8125,80.60625457763672
1729696946780851000,10.262850830078126,-256.6125183105469,182.6437530517578,80.28750610351562
1729696946790851000,10.27285107421875,-256.76251220703125,182.7375030517578,80.15625
1729696946800851000,10.282850830078125,-256.96875,182.6437530517578,80.10000610351562
1729696946810851000,10.29285107421875,-257.15625,182.86875915527344,79.95000457763672
1729696946820851000,10.302850830078125,-257.2687683105469,182.88751220703125,80.1187515258789
1729696946830851000,10.31285107421875,-257.5687561035156,182.60626220703125,79.8375015258789
1729696946840851000,10.322850830078124,-257.7375183105469,182.77500915527344,79.76250457763672
1729696946850851000,10.33285107421875,-257.9437561035156,182.85000610351562,79.5562515258789
1729696946860851000,10.342850830078126,-257.9437561035156,182.75625610351562,79.6500015258789
1729696946870851000,10.35285107421875,-257.9437561035156,182.75625610351562,79.59375
1729696946880851000,10.362850830078125,-258.45001220703125,182.70001220703125,79.7437515258789
1729696946890851000,10.37285107421875,-258.65625,182.8125,79.81875610351562
1729696946900851000,10.382850830078125,-259.3500061035156,182.94375610351562,79.875
1729696946910851000,10.39285107421875,-260.3062744140625,183.05625915527344,80.38125610351562
1729696946920851000,10.402850830078124,-261.4875183105469,182.94375610351562,80.8687515258789
1729696946930851000,10.41285107421875,-262.76251220703125,182.85000610351562,81.6187515258789
1729696946940851000,10.422850830078126,-264.28125,183.4875030517578,82.01250457763672
1729696946950851000,10.43285107421875,-266.1187744140625,183.84375,83.04375457763672
1729696946960851000,10.442850830078125,-267.3187561035156,184.38751220703125,83.83125305175781
1729696946970851000,10.45285107421875,-268.7250061035156,184.66876220703125,84.9000015258789
1729696946980851000,10.462850830078125,-269.88751220703125,185.41876220703125,85.91250610351562
1729696946990851000,10.47285107421875,-270.65625,185.9250030517578,86.90625
1729696947000851000,10.482850830078124,-271.29376220703125,186.69375610351562,87.9000015258789
1729696947010851000,10.49285107421875,-271.8375244140625,187.46250915527344,88.70625305175781
1729696947020851000,10.502850830078126,-272.3625183105469,187.72500610351562,89.56875610351562
1729696947030851000,10.51285107421875,-272.8125,188.32501220703125,89.98125457763672
1729696947040851000,10.522850830078125,-273.26251220703125,188.7375030517578,90.58125305175781
1729696947050851000,10.53285107421875,-273.75,189.31875610351562,90.82500457763672
1729696947060851000,10.542850830078125,-273.9750061035156,189.4875030517578,90.82500457763672
1729696947070851000,10.55285107421875,-274.6875,189.78750610351562,90.76875305175781
1729696947080851000,10.562850830078125,-275.2125244140625,189.88125610351562,90.95625305175781
1729696947090851000,10.57285107421875,-275.625,190.10626220703125,91.1812515258789
1729696947100851000,10.582850830078126,-276.09375,190.2375030517578,91.48125457763672
1729696947110851000,10.59285107421875,-276.09375,190.25625610351562,91.95000457763672
1729696947120851000,10.602850830078125,-276.3937683105469,190.40625,92.25
1729696947130851000,10.61285107421875,-276.35626220703125,190.6125030517578,92.64375305175781
1729696947140851000,10.622850830078125,-276.4875183105469,190.7062530517578,93.5250015258789
1729696947150851000,10.63285107421875,-275.8687744140625,191.0812530517578,94.14375305175781
1729696947160851000,10.642850830078125,-275.32501220703125,191.4375,94.6500015258789
1729696947170851000,10.65285107421875,-274.85626220703125,191.68125915527344,94.78125
1729696947180851000,10.662850830078124,-274.40625,191.98126220703125,95.19375610351562
1729696947190851000,10.67285107421875,-274.2750244140625,192.3000030517578,95.4375
1729696947200851000,10.682850830078126,-273.73126220703125,192.46876525878906,95.4937515258789
1729696947210851000,10.69285107421875,-273.16876220703125,192.41250610351562,95.73750305175781
1729696947220851000,10.702850830078125,-272.6812744140625,192.5812530517578,95.98125457763672
1729696947230851000,10.71285107421875,-272.2125244140625,192.63751220703125,96.13125610351562
1729696947240851000,10.722850830078125,-272.0625,192.56251525878906,96.20625305175781
1729696947250851000,10.73285107421875,-271.5,192.5812530517578,96.46875762939453
1729696947260851000,10.742850830078124,-270.6937561035156,192.63751220703125,96.4312515258789
1729696947270851000,10.75285107421875,-269.9625244140625,192.54376220703125,96.28125762939453
1729696947280851000,10.762850830078126,-269.13751220703125,192.61875915527344,96.16875457763672
1729696947290851000,10.77285107421875,-268.8000183105469,192.46876525878906,96.11250305175781
1729696947300851000,10.782850830078125,-267.9937744140625,192.3937530517578,95.73750305175781
1729696947310851000,10.79285107421875,-267.3375244140625,192.22500610351562,95.45625305175781
1729696947320851000,10.802850830078125,-266.5875244140625,192,95.36250305175781
1729696947330851000,10.81285107421875,-266.4375,191.41876220703125,95.45625305175781
1729696947340851000,10.822850830078124,-266.4562683105469,190.83750915527344,95.83125305175781
1729696947350851000,10.83285107421875,-266.2875061035156,190.38751220703125,96.1500015258789
1729696947360851000,10.842850830078126,-266.625,189.80625915527344,96.60000610351562
1729696947370851000,10.85285107421875,-266.5875244140625,189.63751220703125,97.03125762939453
1729696947380851000,10.862850830078125,-266.70001220703125,189.33750915527344,97.59375762939453
1729696947390851000,10.87285107421875,-267.0187683105469,189.31875610351562,98.25000762939453
1729696947400851000,10.882850830078125,-267.2062683105469,189.26251220703125,98.4000015258789
1729696947410851000,10.89285107421875,-267.1500244140625,189.3000030517578,98.51250457763672
1729696947420851000,10.902850830078124,-266.70001220703125,189.5812530517578,98.51250457763672
1729696947430851000,10.91285107421875,-266.25,189.90000915527344,98.62500762939453
1729696947440851000,10.922850830078126,-265.6875,190.27500915527344,98.51250457763672
1729696947450851000,10.93285107421875,-265.0687561035156,190.44375610351562,98.3062515258789
1729696947460851000,10.942850830078125,-264.8625183105469,190.8000030517578,97.95000457763672
1729696947470851000,10.95285107421875,-264.73126220703125,190.81875610351562,97.89375305175781
1729696947480851000,10.962850830078125,-264.46875,191.00625610351562,98.06250762939453
1729696947490851000,10.97285107421875,-264.2250061035156,191.41876220703125,98.04375457763672
1729696947500851000,10.982850830078124,-264.54376220703125,191.49375915527344,97.8375015258789
1729696947510851000,10.99285107421875,-264.8812561035156,191.70001220703125,97.96875762939453
1729696947520851000,11.002850830078126,-265.3125,191.8125,97.95000457763672
1729696947530851000,11.01285107421875,-265.9312744140625,192,97.95000457763672
1729696947540851000,11.022850830078125,-266.2125244140625,191.88751220703125,97.8375015258789
1729696947550851000,11.03285107421875,-266.51251220703125,191.8125,97.40625762939453
1729696947560851000,11.042850830078125,-267.1125183105469,191.8125,97.14375305175781
1729696947570851000,11.05285107421875,-267.6937561035156,191.51251220703125,96.88125610351562
1729696947580851000,11.062850830078125,-268.03125,191.60626220703125,96.65625762939453
1729696947590851000,11.07285107421875,-268.66876220703125,191.60626220703125,96.03750610351562
1729696947600851000,11.082850830078126,-269.04376220703125,191.58750915527344,95.73750305175781
1729696947610851000,11.09285107421875,-269.4562683105469,191.85000610351562,95.47500610351562
1729696947620851000,11.102850830078125,-270.4125061035156,191.96250915527344,95.15625
1729696947630851000,11.11285107421875,-270.9000244140625,192.35626220703125,94.98750305175781
1729696947640851000,11.122850830078125,-271.2750244140625,192.65626525878906,94.51875305175781
1729696947650851000,11.13285107421875,-271.8187561035156,193.18125915527344,94.10625457763672
1729696947660851000,11.142850830078125,-272.13751220703125,193.59376525878906,93.86250305175781
1729696947670851000,11.15285107421875,-272.32501220703125,193.76251220703125,93.58125305175781
1729696947680851000,11.162850830078124,-272.4375,194.04376220703125,92.94375610351562
1729696947690851000,11.17285107421875,-272.4375,194.04376220703125,92.4375
1729696947700851000,11.182850830078126,-272.2125244140625,194.21250915527344,91.91250610351562
1729696947710851000,11.19285107421875,-272.1000061035156,194.1750030517578,91.16250610351562
1729696947720851000,11.202850830078125,-271.6125183105469,193.85626220703125,90.69375610351562
1729696947730851000,11.21285107421875,-271.2562561035156,193.63125610351562,90.2437515258789
1729696947740851000,11.222850830078125,-270.84375,192.9562530517578,89.55000305175781
1729696947750851000,11.23285107421875,-270.4125061035156,192.43125915527344,88.98750305175781
1729696947760851000,11.242850830078124,-269.98126220703125,191.68125915527344,88.53750610351562
1729696947770851000,11.25285107421875,-269.8125,190.93125915527344,88.0875015258789
1729696947780851000,11.262850830078126,-269.4375,190.1437530517578,87.78750610351562
1729696947790851000,11.27285107421875,-268.9875183105469,189.2062530517578,87.31875610351562
1729696947800851000,11.282850830078125,-268.5562744140625,188.625,86.8125
1729696947810851000,11.29285107421875,-267.82501220703125,187.7062530517578,86.4000015258789
1729696947820851000,11.302850830078125,-267.3000183105469,187.3125,85.98750305175781
1729696947830851000,11.31285107421875,-266.70001220703125,187.03125,85.6500015258789
1729696947840851000,11.322850830078124,-266.1187744140625,186.52500915527344,85.33125305175781
1729696947850851000,11.33285107421875,-265.2562561035156,186.35626220703125,84.8062515258789
1729696947860851000,11.342850830078126,-264.4312744140625,186.28125,84.31875610351562
1729696947870851000,11.35285107421875,-263.7750244140625,186.28125,83.94375610351562
1729696947880851000,11.362850830078125,-263.0250244140625,186.13125610351562,83.32500457763672
1729696947890851000,11.37285107421875,-262.48126220703125,186.07501220703125,82.6500015258789
1729696947900851000,11.382850830078125,-261.9562683105469,185.85000610351562,82.1812515258789
1729696947910851000,11.39285107421875,-261.1312561035156,185.56875610351562,81.65625
1729696947920851000,11.402850830078124,-260.70001220703125,185.66250610351562,81.375
1729696947930851000,11.41285107421875,-260.3812561035156,185.41876220703125,81.0562515258789
1729696947940851000,11.422850830078126,-260.04376220703125,185.41876220703125,80.8687515258789
1729696947950851000,11.43285107421875,-259.7062683105469,185.2687530517578,80.56875610351562
1729696947960851000,11.442850830078125,-259.59375,185.02500915527344,80.71875
1729696947970851000,11.45285107421875,-259.5,185.02500915527344,80.6812515258789
1729696947980851000,11.462850830078125,-259.38751220703125,185.23126220703125,80.45625305175781
1729696947990851000,11.47285107421875,-259.78125,185.21250915527344,80.36250305175781
1729696948000851000,11.482850830078124,-259.875,185.11875915527344,80.26875305175781
1729696948010851000,11.49285107421875,-259.9312744140625,185.2687530517578,80.28750610351562
1729696948020851000,11.502850830078126,-259.96875,185.13751220703125,80.00625610351562
1729696948030851000,11.51285107421875,-260.1750183105469,185.23126220703125,79.85625457763672
1729696948040851000,11.522850830078125,-260.70001220703125,185.53125,79.6875
1729696948050851000,11.53285107421875,-261.3937683105469,185.56875610351562,79.63125610351562
1729696948060851000,11.542850830078125,-262.48126220703125,185.25,79.95000457763672
1729696948070851000,11.55285107421875,-263.15625,185.23126220703125,80.23125457763672
1729696948080851000,11.562850830078125,-264.28125,185.3625030517578,80.26875305175781
1729696948090851000,11.57285107421875,-265.3125,185.51251220703125,80.71875
1729696948100851000,11.582850830078126,-266.7375183105469,185.3625030517578,81.46875
1729696948110851000,11.59285107421875,-268.40625,185.41876220703125,82.53750610351562
1729696948120851000,11.602850830078125,-269.6625061035156,185.47500610351562,83.4937515258789
1729696948130851000,11.61285107421875,-270.84375,185.68125915527344,84.78750610351562
1729696948140851000,11.622850830078125,-271.4625244140625,186.09375,85.875
1729696948150851000,11.63285107421875,-272.53125,186.35626220703125,86.88750457763672
1729696948160851000,11.642850830078125,-273.2062683105469,186.80625915527344,87.95625305175781
1729696948170851000,11.65285107421875,-273.82501220703125,187.01251220703125,88.80000305175781
1729696948180851000,11.662850830078124,-274.01251220703125,187.40625,89.56875610351562
1729696948190851000,11.67285107421875,-274.125,187.81875610351562,90.1875
1729696948200851000,11.682850830078126,-274.4437561035156,188.11875915527344,90.7125015258789
1729696948210851000,11.69285107421875,-274.1437683105469,188.68125915527344,91.125
1729696948220851000,11.702850830078125,-274.3687744140625,188.96250915527344,91.35000610351562
1729696948230851000,11.71285107421875,-274.48126220703125,189.41250610351562,91.51875305175781
1729696948240851000,11.722850830078125,-274.4625244140625,189.5625,91.95000457763672
1729696948250851000,11.73285107421875,-274.8000183105469,189.61875915527344,92.1187515258789
1729696948260851000,11.742850830078124,-275.2125244140625,190.01251220703125,92.47500610351562
1729696948270851000,11.75285107421875,-275.41876220703125,190.125,92.73750305175781
1729696948280851000,11.762850830078126,-275.9625244140625,190.44375610351562,93.11250305175781
1729696948290851000,11.77285107421875,-276.4875183105469,190.25625610351562,93.65625
1729696948300851000,11.782850830078125,-276.7125244140625,190.20001220703125,94.40625
1729696948310851000,11.79285107421875,-276.75,190.1437530517578,94.96875
1729696948320851000,11.802850830078125,-276.9937744140625,190.36875915527344,95.625
1729696948330851000,11.81285107421875,-276.9937744140625,190.66876220703125,96.35625457763672
1729696948340851000,11.822850830078124,-277.1437683105469,190.74375915527344,96.84375762939453
1729696948350851000,11.83285107421875,-277.125,190.78125,97.35000610351562
1729696948360851000,11.842850830078126,-276.6937561035156,190.83750915527344,97.72500610351562
1729696948370851000,11.85285107421875,-276.5250244140625,191.28750610351562,97.91250610351562
1729696948380851000,11.862850830078125,-276.35626220703125,191.6437530517578,98.19375610351562
1729696948390851000,11.87285107421875,-276.16876220703125,191.88751220703125,98.60625457763672
1729696948400851000,11.882850830078125,-275.88751220703125,191.85000610351562,98.6812515258789
1729696948410851000,11.89285107421875,-275.7375183105469,191.94375610351562,98.79375457763672
1729696948420851000,11.902850830078124,-275.2125244140625,192.24375915527344,98.70000457763672
1729696948430851000,11.91285107421875,-274.8937683105469,192.54376220703125,98.5875015258789
1729696948440851000,11.922850830078126,-274.4437561035156,192.6750030517578,98.3062515258789
1729696948450851000,11.93285107421875,-274.01251220703125,192.60000610351562,98.0250015258789
1729696948460851000,11.942850830078125,-273.5625,192.45001220703125,97.59375762939453
1729696948470851000,11.95285107421875,-273.0187683105469,192.63751220703125,97.29375457763672
1729696948480851000,11.962850830078125,-272.32501220703125,192.5812530517578,96.8062515258789
1729696948490851000,11.97285107421875,-271.8187561035156,192.31875610351562,96.1500015258789
1729696948500851000,11.982850830078124,-271.1812744140625,191.8312530517578,95.75625610351562
1729696948510851000,11.99285107421875,-270.6000061035156,191.28750610351562,95.55000305175781
1729696948520851000,12.002850830078126,-270.3000183105469,190.81875610351562,95.5875015258789
1729696948530851000,12.01285107421875,-270.1125183105469,190.4250030517578,95.4375
1729696948540851000,12.022850830078125,-270.2437744140625,190.1437530517578,95.45625305175781
1729696948550851000,12.03285107421875,-270.4875183105469,189.52500915527344,95.5875015258789
1729696948560851000,12.042850830078125,-270.5812683105469,189.22500610351562,96.03750610351562
1729696948570851000,12.05285107421875,-270.7687683105469,189.16876220703125,96.60000610351562
1729696948580851000,12.062850830078125,-270.9750061035156,189.1875,97.14375305175781
1729696948590851000,12.07285107421875,-271.1437683105469,189.35626220703125,97.6500015258789
1729696948600851000,12.082850830078126,-270.8812561035156,189.3937530517578,97.85625457763672
1729696948610851000,12.09285107421875,-270.8062744140625,189.46875,98.23125457763672
1729696948620851000,12.102850830078125,-270.3000183105469,189.90000915527344,98.10000610351562
1729696948630851000,12.11285107421875,-269.8125,190.0500030517578,98.26875305175781
1729696948640851000,12.122850830078125,-269.53125,190.35000610351562,98.15625762939453
1729696948650851000,12.13285107421875,-269.1750183105469,190.2375030517578,98.45625305175781
1729696948660851000,12.142850830078125,-268.95001220703125,190.4250030517578,98.56875610351562
1729696948670851000,12.15285107421875,-268.7250061035156,190.66876220703125,98.6812515258789
1729696948680851000,12.162850830078124,-268.9875183105469,190.875,98.94375610351562
1729696948690851000,12.17285107421875,-269.4375,191.0625,99.00000762939453
1729696948700851000,12.182850830078126,-269.8500061035156,191.10000610351562,99.22500610351562
1729696948710851000,12.19285107421875,-270.4875183105469,191.30625915527344,99.16875457763672
1729696948720851000,12.202850830078125,-270.9375,191.625,99.16875457763672
1729696948730851000,12.21285107421875,-271.3687744140625,191.85000610351562,98.81250762939453
1729696948740851000,12.222850830078125,-271.8937683105469,191.85000610351562,98.26875305175781
1729696948750851000,12.23285107421875,-272.13751220703125,192.0187530517578,97.6500015258789
1729696948760851000,12.242850830078124,-272.51251220703125,192.16876220703125,97.0875015258789
1729696948770851000,12.25285107421875,-272.79376220703125,192.45001220703125,96.39375305175781
1729696948780851000,12.262850830078126,-273.0375061035156,192.60000610351562,95.88750457763672
1729696948790851000,12.27285107421875,-273.07501220703125,192.90000915527344,95.45625305175781
1729696948800851000,12.282850830078125,-273.4125061035156,192.8625030517578,95.00625610351562
1729696948810851000,12.29285107421875,-273.46875,193.01251220703125,94.29375457763672
1729696948820851000,12.302850830078125,-273.6937561035156,193.20001220703125,93.75
1729696948830851000,12.31285107421875,-273.7875061035156,193.01251220703125,93.45000457763672
1729696948840851000,12.322850830078124,-273.7125244140625,192.9562530517578,92.90625
1729696948850851000,12.33285107421875,-273.3187561035156,192.71250915527344,92.4375
1729696948860851000,12.342850830078126,-273.0562744140625,192.43125915527344,92.00625610351562
1729696948870851000,12.35285107421875,-272.8500061035156,192.15000915527344,91.40625
1729696948880851000,12.362850830078125,-272.4000244140625,191.96250915527344,90.84375
1729696948890851000,12.37285107421875,-272.0625,191.94375610351562,90.58125305175781
1729696948900851000,12.382850830078125,-271.5187683105469,191.58750915527344,90.11250305175781
1729696948910851000,12.39285107421875,-271.2375183105469,191.70001220703125,89.45625305175781
1729696948920851000,12.402850830078124,-270.75,191.25,89.0250015258789
1729696948930851000,12.41285107421875,-270.1500244140625,190.6875,88.38750457763672
1729696948940851000,12.422850830078126,-269.2125244140625,190.25625610351562,87.91875457763672
1729696948950851000,12.43285107421875,-268.29376220703125,189.61875915527344,87.45000457763672
1729696948960851000,12.442850830078125,-267.46875,188.88751220703125,86.73750305175781
1729696948970851000,12.45285107421875,-266.25,188.02500915527344,86.08125305175781
1729696948980851000,12.462850830078125,-264.9750061035156,187.29376220703125,85.61250305175781
1729696948990851000,12.47285107421875,-263.8125,186.28125,84.9375
1729696949000851000,12.482850830078124,-262.57501220703125,185.7375030517578,84.4312515258789
1729696949010851000,12.49285107421875,-261.1500244140625,185.25,84.09375
1729696949020851000,12.502850830078126,-260.4375,184.875,83.66250610351562
1729696949030851000,12.51285107421875,-259.4437561035156,184.7062530517578,83.10000610351562
1729696949040851000,12.522850830078125,-258.5812683105469,184.2375030517578,82.95000457763672
1729696949050851000,12.53285107421875,-257.9437561035156,183.9562530517578,82.72500610351562
1729696949060851000,12.542850830078125,-257.2875061035156,183.91876220703125,82.72500610351562
1729696949070851000,12.55285107421875,-256.7437744140625,183.75,82.875
1729696949080851000,12.562850830078125,-256.5187683105469,183.52500915527344,82.6875
1729696949090851000,12.57285107421875,-256.3687744140625,183.50625610351562,82.76250457763672
1729696949100851000,12.582850830078126,-255.73126220703125,183.28125,82.51875305175781
1729696949110851000,12.59285107421875,-255.56251525878906,182.98126220703125,82.4625015258789
1729696949120851000,12.602850830078125,-255.22500610351562,182.88751220703125,82.42500305175781
1729696949130851000,12.61285107421875,-254.98126220703125,182.6437530517578,82.20000457763672
1729696949140851000,12.622850830078125,-255.13125610351562,182.41876220703125,81.82500457763672
1729696949150851000,12.63285107421875,-255.13125610351562,182.41876220703125,81.60000610351562
1729696949160851000,12.642850830078125,-254.94375610351562,182.23126220703125,81.3375015258789
1729696949170851000,12.65285107421875,-255.05625915527344,181.96875,81.01875305175781
1729696949180851000,12.662850830078124,-255.28126525878906,181.66876220703125,80.71875
1729696949190851000,12.67285107421875,-255.37501525878906,181.59375,80.51250457763672
1729696949200851000,12.682850830078126,-255.56251525878906,181.6875,80.15625
1729696949210851000,12.69285107421875,-255.93751525878906,181.81875610351562,80.0250015258789
1729696949220851000,12.702850830078125,-256.1625061035156,181.57501220703125,80.19375610351562
1729696949230851000,12.71285107421875,-256.59375,181.36875915527344,79.96875
1729696949240851000,12.722850830078125,-257.53125,181.46250915527344,80.13750457763672
1729696949250851000,12.73285107421875,-258.5062561035156,181.6125030517578,80.28750610351562
1729696949260851000,12.742850830078124,-259.76251220703125,181.74375915527344,80.8687515258789
1729696949270851000,12.75285107421875,-261.3000183105469,182.02500915527344,81.26250457763672
1729696949280851000,12.762850830078126,-262.57501220703125,182.1750030517578,81.9000015258789
1729696949290851000,12.77285107421875,-264.0562744140625,182.49375915527344,82.53750610351562
1729696949300851000,12.782850830078125,-265.8375244140625,183.1125030517578,83.4937515258789
1729696949310851000,12.79285107421875,-267.3187561035156,183.73126220703125,84.7125015258789
1729696949320851000,12.802850830078125,-268.5187683105469,184.59375,85.63125610351562
1729696949330851000,12.81285107421875,-269.41876220703125,185.3625030517578,86.90625
1729696949340851000,12.822850830078124,-270.3000183105469,186.35626220703125,88.0875015258789
1729696949350851000,12.83285107421875,-270.9750061035156,186.7687530517578,89.36250305175781
1729696949360851000,12.842850830078126,-271.875,187.66876220703125,90.31875610351562
1729696949370851000,12.85285107421875,-272.625,188.1750030517578,91.5
1729696949380851000,12.862850830078125,-273.07501220703125,188.77500915527344,91.81875610351562
1729696949390851000,12.87285107421875,-273.45001220703125,189.28125,92.32500457763672
1729696949400851000,12.882850830078125,-273.9562683105469,189.5812530517578,93.03750610351562
1729696949410851000,12.89285107421875,-274.7437744140625,189.63751220703125,93.41250610351562
1729696949420851000,12.902850830078124,-275.3062744140625,189.84375,93.82500457763672
1729696949430851000,12.91285107421875,-275.7375183105469,190.27500915527344,94.05000305175781
1729696949440851000,12.922850830078126,-276.16876220703125,190.36875915527344,94.59375
1729696949450851000,12.93285107421875,-276.54376220703125,190.6875,94.80000305175781
1729696949460851000,12.942850830078125,-276.7687683105469,190.66876220703125,95.32500457763672
1729696949470851000,12.95285107421875,-276.9000244140625,190.875,95.79375457763672
1729696949480851000,12.962850830078125,-276.7125244140625,191.0812530517578,96.37500762939453
1729696949490851000,12.97285107421875,-276.4312744140625,191.6437530517578,96.76875305175781
1729696949500851000,12.982850830078124,-276.2062683105469,191.4562530517578,96.95625305175781
1729696949510851000,12.99285107421875,-275.8312683105469,191.41876220703125,97.3687515258789
1729696949520851000,13.002850830078126,-275.4937744140625,191.60626220703125,97.68750762939453
1729696949530851000,13.01285107421875,-274.95001220703125,191.79376220703125,98.06250762939453
1729696949540851000,13.022850830078125,-274.48126220703125,192.16876220703125,98.43750762939453
1729696949550851000,13.03285107421875,-274.29376220703125,192.07501220703125,98.4000015258789
1729696949560851000,13.042850830078125,-274.0500183105469,191.85000610351562,98.15625762939453
1729696949570851000,13.05285107421875,-273.73126220703125,191.625,98.25000762939453
1729696949580851000,13.062850830078125,-273.4125061035156,191.70001220703125,98.55000305175781
1729696949590851000,13.07285107421875,-273.2437744140625,191.625,98.51250457763672
1729696949600851000,13.082850830078126,-272.8687744140625,191.625,98.26875305175781
1729696949610851000,13.09285107421875,-272.5500183105469,191.47500610351562,98.00625610351562
1729696949620851000,13.102850830078125,-272.1750183105469,191.32501220703125,97.50000762939453
1729696949630851000,13.11285107421875,-271.4250183105469,191.47500610351562,97.35000610351562
1729696949640851000,13.122850830078125,-270.6750183105469,191.5500030517578,97.10625457763672
1729696949650851000,13.13285107421875,-270.2437744140625,191.47500610351562,96.60000610351562
1729696949660851000,13.142850830078125,-269.60626220703125,191.53125,96.09375762939453
1729696949670851000,13.15285107421875,-268.7437744140625,191.51251220703125,96.01875305175781
1729696949680851000,13.162850830078124,-268.0875244140625,190.96875,95.90625
1729696949690851000,13.17285107421875,-267.7875061035156,190.65000915527344,96.20625305175781
1729696949700851000,13.182850830078126,-267.46875,190.3312530517578,96.60000610351562
1729696949710851000,13.19285107421875,-267.4312744140625,189.69375610351562,96.9937515258789
1729696949720851000,13.202850830078125,-267.8062744140625,189.3937530517578,97.53750610351562
1729696949730851000,13.21285107421875,-267.5812683105469,189.1875,98.2125015258789
1729696949740851000,13.222850830078125,-267.3937683105469,188.90625,98.62500762939453
1729696949750851000,13.23285107421875,-267.375,189.09375,99.03750610351562
1729696949760851000,13.242850830078124,-267.73126220703125,189.31875610351562,99.37500762939453
1729696949770851000,13.25285107421875,-267.4875183105469,189.24375915527344,99.39375305175781
1729696949780851000,13.262850830078126,-267.16876220703125,189.52500915527344,99.4312515258789
1729696949790851000,13.27285107421875,-266.9250183105469,189.75,99.5250015258789
1729696949800851000,13.282850830078125,-266.60626220703125,189.82501220703125,99.76875305175781
1729696949810851000,13.29285107421875,-266.4562683105469,189.7687530517578,99.67500305175781
1729696949820851000,13.302850830078125,-266.8312683105469,190.06875610351562,99.65625762939453
1729696949830851000,13.31285107421875,-267.2250061035156,190.03125,99.4312515258789
1729696949840851000,13.322850830078124,-267.28125,190.2375030517578,99.3375015258789
1729696949850851000,13.33285107421875,-267.91876220703125,190.6125030517578,99.1500015258789
1729696949860851000,13.342850830078126,-268.6500244140625,190.6125030517578,99.22500610351562
1729696949870851000,13.35285107421875,-269.32501220703125,190.8937530517578,99.1500015258789
1729696949880851000,13.362850830078125,-269.71875,191.02500915527344,98.45625305175781
1729696949890851000,13.37285107421875,-270.3000183105469,191.15625,98.1187515258789
1729696949900851000,13.382850830078125,-270.5812683105469,191.15625,97.78125762939453
1729696949910851000,13.39285107421875,-271.0500183105469,190.96875,97.20000457763672
1729696949920851000,13.402850830078124,-271.3312683105469,190.85626220703125,96.75000762939453
1729696949930851000,13.41285107421875,-271.21875,190.875,96.50625610351562
1729696949940851000,13.422850830078126,-271.4437561035156,190.85626220703125,95.83125305175781
1729696949950851000,13.43285107421875,-271.4625244140625,191.04376220703125,95.26875305175781
1729696949960851000,13.442850830078125,-271.4625244140625,191.49375915527344,94.70625305175781
1729696949970851000,13.45285107421875,-271.5562744140625,192.09376525878906,94.14375305175781
1729696949980851000,13.462850830078125,-271.7062683105469,192.35626220703125,93.5625
1729696949990851000,13.47285107421875,-271.5187683105469,192.75001525878906,93
1729696950000851000,13.482850830078124,-271.6125183105469,192.93751525878906,92.10000610351562
1729696950010851000,13.49285107421875,-272.1937561035156,193.10626220703125,91.16250610351562
1729696950020851000,13.502850830078126,-272.9625244140625,192.7687530517578,90.22500610351562
1729696950030851000,13.51285107421875,-273.9375,192.07501220703125,88.9312515258789
1729696950040851000,13.522850830078125,-275.51251220703125,190.83750915527344,87.78750610351562
1729696950050851000,13.53285107421875,-276.6750183105469,189.78750610351562,86.32500457763672
1729696950060851000,13.542850830078125,-277.40625,188.58750915527344,84.84375
1729696950070851000,13.55285107421875,-277.9312744140625,187.46250915527344,83.13750457763672
1729696950080851000,13.562850830078125,-278.2125244140625,186.28125,81.91875457763672
1729696950090851000,13.57285107421875,-278.04376220703125,185.32501220703125,80.55000305175781
1729696950100851000,13.582850830078126,-277.3687744140625,184.72500610351562,79.42500305175781
1729696950110851000,13.59285107421875,-276.54376220703125,184.4250030517578,78.26250457763672
1729696950120851000,13.602850830078125,-275.15625,184.5,77.4000015258789
1729696950130851000,13.61285107421875,-273.8625183105469,184.4250030517578,76.48125457763672
1729696950140851000,13.622850830078125,-272.70001220703125,184.78125,75.9375
