time,seconds_elapsed,z,y,x
1729696936596664000,0.0786640625,9.664909362792969,0.5195416212081909,-0.4046861231327057
1729696936606433300,0.088433349609375,9.657731056213379,0.48843491077423096,-0.39990049600601196
1729696936616202500,0.098202392578125,9.688838005065918,0.5027918815612793,-0.3807578980922699
1729696936625971700,0.1079716796875,9.691230773925781,0.5075774788856506,-0.3927220106124878
1729696936635741000,0.117740966796875,9.684052467346191,0.48843491077423096,-0.3735794425010681
1729696936645510100,0.12751025390625,9.674481391906738,0.5003990530967712,-0.3975076675415039
1729696936655279400,0.137279296875,9.664909362792969,0.5003990530967712,-0.39511483907699585
1729696936665048600,0.147048583984375,9.662516593933105,0.5003990530967712,-0.39990049600601196
1729696936674817800,0.15681787109375,9.686445236206055,0.48843491077423096,-0.38793638348579407
1729696936684587000,0.1665869140625,9.681659698486328,0.5099703073501587,-0.39032918214797974
1729696936694356200,0.176356201171875,9.686445236206055,0.5003990530967712,-0.4094717800617218
1729696936704125400,0.18612548828125,9.679266929626465,0.5123631358146667,-0.38793638348579407
1729696936713894700,0.195894775390625,9.686445236206055,0.5123631358146667,-0.40229329466819763
1729696936723664100,0.2056640625,9.667302131652832,0.5003990530967712,-0.39511483907699585
1729696936733433300,0.215433349609375,9.674481391906738,0.490827739238739,-0.38315072655677795
1729696936743202600,0.22520263671875,9.691230773925781,0.5195416212081909,-0.4046861231327057
1729696936752971800,0.2349716796875,9.684052467346191,0.4860421121120453,-0.38315072655677795
1729696936762741000,0.244740966796875,9.679266929626465,0.5003990530967712,-0.3975076675415039
1729696936772510200,0.25451025390625,9.672088623046875,0.5003990530967712,-0.39511483907699585
1729696936782279400,0.264279541015625,9.667302131652832,0.4980062246322632,-0.39032918214797974
1729696936792048600,0.274048583984375,9.676874160766602,0.4956133961677551,-0.4046861231327057
1729696936801817900,0.28381787109375,9.691230773925781,0.5075774788856506,-0.37597227096557617
1729696936811587000,0.293587158203125,9.686445236206055,0.49322056770324707,-0.38315072655677795
1729696936821356300,0.303356201171875,9.672088623046875,0.4692923426628113,-0.39511483907699585
1729696936831125500,0.31312548828125,9.662516593933105,0.5123631358146667,-0.3927220106124878
1729696936840894700,0.322894775390625,9.684052467346191,0.490827739238739,-0.3807578980922699
1729696936850664200,0.332664306640625,9.679266929626465,0.490827739238739,-0.3975076675415039
1729696936860433400,0.342433349609375,9.684052467346191,0.48364928364753723,-0.38315072655677795
1729696936870202600,0.35220263671875,9.703194618225098,0.5051847100257874,-0.3807578980922699
1729696936879971800,0.361971923828125,9.696016311645508,0.5003990530967712,-0.41186460852622986
1729696936889741000,0.371740966796875,9.688838005065918,0.490827739238739,-0.35922250151634216
1729696936899510300,0.38151025390625,9.674481391906738,0.5003990530967712,-0.38315072655677795
1729696936909279500,0.391279541015625,9.669695854187012,0.490827739238739,-0.38793638348579407
1729696936919048700,0.401048583984375,9.679266929626465,0.5027918815612793,-0.385543555021286
1729696936928818000,0.41081787109375,9.679266929626465,0.4812564551830292,-0.3807578980922699
1729696936938587100,0.420587158203125,9.669695854187012,0.4980062246322632,-0.3807578980922699
1729696936948356400,0.4303564453125,9.679266929626465,0.490827739238739,-0.39032918214797974
1729696936958125600,0.44012548828125,9.664909362792969,0.5171487927436829,-0.37118661403656006
1729696936967894800,0.449894775390625,9.676874160766602,0.5147559642791748,-0.39032918214797974
1729696936977664300,0.459664306640625,9.681659698486328,0.4812564551830292,-0.37597227096557617
1729696936987433500,0.46943359375,9.681659698486328,0.4573282301425934,-0.385543555021286
1729696936997202700,0.47920263671875,9.669695854187012,0.48364928364753723,-0.3807578980922699
1729696937006972000,0.488971923828125,9.674481391906738,0.4860421121120453,-0.3735794425010681
1729696937016741000,0.4987412109375,9.664909362792969,0.4980062246322632,-0.3975076675415039
1729696937026510300,0.50851025390625,9.672088623046875,0.4812564551830292,-0.40707895159721375
1729696937036279600,0.518279541015625,9.672088623046875,0.4956133961677551,-0.4142574071884155
1729696937046048800,0.528048828125,9.664909362792969,0.4788636267185211,-0.38793638348579407
1729696937055818000,0.53781787109375,9.664909362792969,0.5051847100257874,-0.385543555021286
1729696937065587200,0.547587158203125,9.676874160766602,0.5410770177841187,-0.4262215197086334
1729696937075356400,0.5573564453125,9.669695854187012,0.5027918815612793,-0.3975076675415039
1729696937085125600,0.567125732421875,9.686445236206055,0.4956133961677551,-0.3807578980922699
1729696937094894800,0.576894775390625,9.667302131652832,0.5195416212081909,-0.41186460852622986
1729696937104664000,0.5866640625,9.681659698486328,0.5123631358146667,-0.4262215197086334
1729696937114433300,0.596433349609375,9.669695854187012,0.4788636267185211,-0.39990049600601196
1729696937124202500,0.606202392578125,9.667302131652832,0.48843491077423096,-0.39990049600601196
1729696937133971700,0.6159716796875,9.681659698486328,0.4956133961677551,-0.4214358925819397
1729696937143741000,0.625740966796875,9.667302131652832,0.490827739238739,-0.38793638348579407
1729696937153510400,0.635510498046875,9.667302131652832,0.5147559642791748,-0.39990049600601196
1729696937163279600,0.645279541015625,9.703194618225098,0.5338985323905945,-0.3640081584453583
1729696937173048800,0.655048828125,9.667302131652832,0.4980062246322632,-0.39511483907699585
1729696937182818000,0.664818115234375,9.684052467346191,0.521934449672699,-0.385543555021286
1729696937192587300,0.674587158203125,9.676874160766602,0.5003990530967712,-0.40229329466819763
1729696937202356500,0.6843564453125,9.688838005065918,0.5075774788856506,-0.368793785572052
1729696937212125700,0.694125732421875,9.679266929626465,0.5171487927436829,-0.35922250151634216
1729696937221895000,0.70389501953125,9.679266929626465,0.5195416212081909,-0.39511483907699585
1729696937231664000,0.7136640625,9.676874160766602,0.5027918815612793,-0.39032918214797974
1729696937241433300,0.723433349609375,9.679266929626465,0.4956133961677551,-0.4142574071884155
1729696937251202600,0.73320263671875,9.669695854187012,0.4788636267185211,-0.4214358925819397
1729696937260971800,0.7429716796875,9.686445236206055,0.5099703073501587,-0.385543555021286
1729696937270741000,0.752740966796875,9.676874160766602,0.48843491077423096,-0.41904306411743164
1729696937280510200,0.76251025390625,9.664909362792969,0.4668995141983032,-0.39032918214797974
1729696937290279400,0.772279541015625,9.667302131652832,0.5099703073501587,-0.3735794425010681
1729696937300048600,0.782048583984375,9.686445236206055,0.5123631358146667,-0.3807578980922699
1729696937309818000,0.791818115234375,9.679266929626465,0.4788636267185211,-0.39990049600601196
1729696937319587300,0.80158740234375,9.698409080505371,0.5003990530967712,-0.39990049600601196
1729696937329356500,0.8113564453125,9.684052467346191,0.49322056770324707,-0.41186460852622986
1729696937339125800,0.821125732421875,9.684052467346191,0.5003990530967712,-0.4142574071884155
1729696937348895000,0.83089501953125,9.676874160766602,0.5075774788856506,-0.39032918214797974
1729696937358664200,0.840664306640625,9.679266929626465,0.5051847100257874,-0.37836506962776184
1729696937368433400,0.850433349609375,9.696016311645508,0.5075774788856506,-0.3975076675415039
1729696937378202600,0.86020263671875,9.700801849365234,0.48843491077423096,-0.3927220106124878
1729696937387971800,0.869971923828125,9.681659698486328,0.4812564551830292,-0.37597227096557617
1729696937397741000,0.879740966796875,9.693623542785645,0.4692923426628113,-0.368793785572052
1729696937407510300,0.88951025390625,9.686445236206055,0.48364928364753723,-0.385543555021286
1729696937417279500,0.899279541015625,9.667302131652832,0.5147559642791748,-0.37597227096557617
1729696937427048700,0.909048583984375,9.674481391906738,0.48364928364753723,-0.3735794425010681
1729696937436818000,0.91881787109375,9.693623542785645,0.5051847100257874,-0.38793638348579407
1729696937446587100,0.928587158203125,9.679266929626465,0.5051847100257874,-0.3927220106124878
1729696937456356600,0.938356689453125,9.676874160766602,0.48364928364753723,-0.38315072655677795
1729696937466125800,0.948125732421875,9.672088623046875,0.4956133961677551,-0.38315072655677795
1729696937475895000,0.95789501953125,9.664909362792969,0.5195416212081909,-0.38315072655677795
1729696937485664300,0.967664306640625,9.681659698486328,0.49322056770324707,-0.3807578980922699
1729696937495433500,0.97743359375,9.688838005065918,0.5027918815612793,-0.37597227096557617
1729696937505202700,0.98720263671875,9.684052467346191,0.490827739238739,-0.385543555021286
1729696937514972000,0.996971923828125,9.662516593933105,0.48364928364753723,-0.40229329466819763
1729696937524741000,1.0067412109375,9.686445236206055,0.48843491077423096,-0.39032918214797974
1729696937534510300,1.01651025390625,9.679266929626465,0.5147559642791748,-0.40707895159721375
1729696937544279600,1.026279541015625,9.691230773925781,0.521934449672699,-0.3927220106124878
1729696937554048800,1.036048828125,9.691230773925781,0.48364928364753723,-0.4046861231327057
1729696937563818000,1.04581787109375,9.669695854187012,0.5195416212081909,-0.38315072655677795
1729696937573587200,1.055587158203125,9.679266929626465,0.5362913608551025,-0.3927220106124878
1729696937583356400,1.0653564453125,9.672088623046875,0.5123631358146667,-0.38315072655677795
1729696937593125600,1.075125732421875,9.679266929626465,0.490827739238739,-0.38315072655677795
1729696937602894800,1.084894775390625,9.691230773925781,0.47168517112731934,-0.39511483907699585
1729696937612664300,1.094664306640625,9.684052467346191,0.5362913608551025,-0.38793638348579407
1729696937622433500,1.10443359375,9.676874160766602,0.5027918815612793,-0.4381856322288513
1729696937632202800,1.11420263671875,9.676874160766602,0.48364928364753723,-0.40229329466819763
1729696937641972000,1.123971923828125,9.672088623046875,0.521934449672699,-0.385543555021286
1729696937651741200,1.1337412109375,9.679266929626465,0.48364928364753723,-0.3568296730518341
1729696937661510400,1.143510498046875,9.684052467346191,0.4980062246322632,-0.3735794425010681
1729696937671279600,1.153279541015625,9.674481391906738,0.48843491077423096,-0.41186460852622986
1729696937681048800,1.163048828125,9.676874160766602,0.48364928364753723,-0.3735794425010681
1729696937690818000,1.172818115234375,9.676874160766602,0.5075774788856506,-0.38793638348579407
1729696937700587300,1.182587158203125,9.669695854187012,0.5195416212081909,-0.4046861231327057
1729696937710356500,1.1923564453125,9.674481391906738,0.48364928364753723,-0.3807578980922699
1729696937720125700,1.202125732421875,9.698409080505371,0.5267201066017151,-0.3568296730518341
1729696937729895000,1.21189501953125,9.686445236206055,0.5027918815612793,-0.39032918214797974
1729696937739664100,1.2216640625,9.707980155944824,0.5003990530967712,-0.3975076675415039
1729696937749433300,1.231433349609375,9.681659698486328,0.48364928364753723,-0.38793638348579407
1729696937759202600,1.24120263671875,9.672088623046875,0.49322056770324707,-0.3975076675415039
1729696937768972000,1.250971923828125,9.669695854187012,0.5291129350662231,-0.3807578980922699
1729696937778741200,1.2607412109375,9.662516593933105,0.490827739238739,-0.33768710494041443
1729696937788510500,1.270510498046875,9.691230773925781,0.4740779995918274,-0.36640095710754395
1729696937798279700,1.28027978515625,9.703194618225098,0.5195416212081909,-0.37597227096557617
1729696937808049000,1.290048828125,9.669695854187012,0.5506483316421509,-0.45254257321357727
1729696937817818000,1.299818115234375,9.679266929626465,0.4692923426628113,-0.4214358925819397
1729696937827587300,1.30958740234375,9.655338287353516,0.47168517112731934,-0.37836506962776184
1729696937837356500,1.3193564453125,9.684052467346191,0.5578267574310303,-0.3568296730518341
1729696937847125800,1.329125732421875,9.698409080505371,0.4980062246322632,-0.4046861231327057
1729696937856895000,1.33889501953125,9.691230773925781,0.5099703073501587,-0.368793785572052
1729696937866664200,1.348664306640625,9.681659698486328,0.4405784606933594,-0.4286143481731415
1729696937876433400,1.358433349609375,9.676874160766602,0.4860421121120453,-0.4046861231327057
1729696937886202600,1.36820263671875,9.667302131652832,0.47168517112731934,-0.4549354016780853
1729696937895971800,1.377971923828125,9.669695854187012,0.524327278137207,-0.37597227096557617
1729696937905741000,1.387740966796875,9.669695854187012,0.47168517112731934,-0.3496512174606323
1729696937915510300,1.39751025390625,9.700801849365234,0.4980062246322632,-0.43579283356666565
1729696937925279700,1.40727978515625,9.686445236206055,0.5315057039260864,-0.37836506962776184
1729696937935049000,1.417049072265625,9.681659698486328,0.4214358925819397,-0.4166502356529236
1729696937944818200,1.426818115234375,9.679266929626465,0.5338985323905945,-0.37597227096557617
1729696937954587400,1.43658740234375,9.662516593933105,0.5123631358146667,-0.4262215197086334
1729696937964356600,1.446356689453125,9.700801849365234,0.4621138870716095,-0.3807578980922699
1729696937974125800,1.456125732421875,9.693623542785645,0.4573282301425934,-0.3975076675415039
1729696937983895000,1.46589501953125,9.696016311645508,0.5147559642791748,-0.4166502356529236
1729696937993664300,1.475664306640625,9.672088623046875,0.44297128915786743,-0.4046861231327057
1729696938003433500,1.48543359375,9.674481391906738,0.5171487927436829,-0.37836506962776184
1729696938013202700,1.49520263671875,9.662516593933105,0.490827739238739,-0.35443684458732605
1729696938022972000,1.504971923828125,9.674481391906738,0.4621138870716095,-0.40229329466819763
1729696938032741000,1.5147412109375,9.712766647338867,0.5291129350662231,-0.37597227096557617
1729696938042510300,1.52451025390625,9.686445236206055,0.5147559642791748,-0.4501497745513916
1729696938052279600,1.534279541015625,9.672088623046875,0.4381856322288513,-0.4453641176223755
1729696938062048800,1.544048828125,9.693623542785645,0.48843491077423096,-0.12442677468061447
1729696938071818200,1.553818359375,9.245866775512695,0.5554339289665222,-0.10289137065410614
1729696938081587500,1.56358740234375,9.585947036743164,0.3568296730518341,-0.24167509377002716
1729696938091356700,1.573356689453125,9.547661781311035,0.5410770177841187,-0.48364928364753723
1729696938101126000,1.5831259765625,9.765408515930176,0.48364928364753723,-0.4549354016780853
1729696938110895000,1.59289501953125,9.818050384521484,0.43579283356666565,-0.5075774788856506
1729696938120664300,1.602664306640625,9.583553314208984,0.5602195858955383,-0.37597227096557617
1729696938130433500,1.61243359375,9.849455833435059,0.5147559642791748,-0.3209373354911804
1729696938140202800,1.62220263671875,9.686445236206055,0.49322056770324707,-0.4094717800617218
1729696938149972000,1.631971923828125,9.559625625610352,0.5458626747131348,-0.4166502356529236
1729696938159741200,1.6417412109375,9.9140625,0.5578267574310303,-0.41904306411743164
1729696938169510400,1.651510498046875,9.459127426147461,0.4668995141983032,-0.490827739238739
1729696938179279600,1.661279541015625,10.000204086303711,0.5506483316421509,-0.3640081584453583
1729696938189048800,1.671048828125,10.098309516906738,0.4501497745513916,-0.4286143481731415
1729696938198818000,1.680818115234375,9.916455268859863,0.4740779995918274,-0.3927220106124878
1729696938208587300,1.690587158203125,9.483055114746094,0.4692923426628113,-0.6224330067634583
1729696938218356700,1.700356689453125,9.444769859313965,-0.5602195858955383,-0.9098708033561707
1729696938228126000,1.7101259765625,9.554840087890625,0.6822535395622253,-1.3334003686904907
1729696938237895200,1.719895263671875,9.832706451416016,2.094916343688965,-1.1276177167892456
1729696938247664400,1.729664306640625,10.715956687927246,2.645564556121826,-0.34247273206710815
1729696938257433600,1.73943359375,12.40857982635498,2.7125635147094727,0.5697908997535706
1729696938267202800,1.749202880859375,13.876277923583984,2.698206663131714,0.9337990283966064
1729696938276972000,1.758971923828125,14.213665962219238,2.784348249435425,1.0055837631225586
1729696938286741200,1.7687412109375,13.564911842346191,3.7372899055480957,0.34247273206710815
1729696938296510500,1.778510498046875,12.932907104492188,4.668396949768066,-0.1698904037475586
1729696938306279700,1.78827978515625,12.578470230102539,4.891228675842285,-0.18903298676013947
1729696938316049000,1.798048828125,12.516257286071777,4.134498596191406,0.2632105052471161
1729696938325818000,1.807818115234375,12.645768165588379,3.224926710128784,0.9864411354064941
1729696938335587300,1.81758740234375,12.595220565795898,3.1890344619750977,1.5945172309875488
1729696938345356500,1.8273564453125,12.626626014709473,3.545564889907837,1.776371717453003
1729696938355125800,1.837125732421875,12.346366882324219,3.2823543548583984,2.0709879398345947
1729696938364895000,1.84689501953125,11.551650047302246,2.760420083999634,3.9813578128814697
1729696938374664400,1.85666455078125,11.374282836914062,1.6758731603622437,5.425127029418945
1729696938384433700,1.86643359375,11.948859214782715,1.5346965789794922,4.187140464782715
1729696938394203000,1.876202880859375,11.996715545654297,2.4777679443359375,2.6479573249816895
1729696938403972000,1.88597216796875,11.647363662719727,2.8154549598693848,2.5785655975341797
1729696938413741300,1.8957412109375,11.556435585021973,2.3700907230377197,3.315854072570801
1729696938423510500,1.905510498046875,11.029715538024902,1.7476578950881958,3.287140130996704
1729696938433279700,1.91527978515625,8.381758689880371,1.220937728881836,1.934298038482666
1729696938443049000,1.925049072265625,9.1716890335083,0.4214358925819397,2.6623141765594482
1729696938452818200,1.934818115234375,8.233403205871582,-0.4573282301425934,2.1930220127105713
1729696938462587400,1.94458740234375,8.381758689880371,-1.410269856452942,1.1754741668701172
1729696938472356600,1.954356689453125,8.989834785461426,-1.86729896068573,0.6008976101875305
1729696938482125800,1.964125732421875,8.934800148010254,-2.0709879398345947,-0.1818545162677765
1729696938491895000,1.97389501953125,8.642576217651367,-3.169891834259033,-0.33529427647590637
1729696938501664300,1.983664306640625,8.376973152160645,-3.8712878227233887,-0.29700911045074463
1729696938511433500,1.99343359375,9.104690551757812,-3.9382870197296143,0.30658039450645447
1729696938521203000,2.003202880859375,10.03848934173584,-4.400400638580322,1.0773683786392212
1729696938530972200,2.01297216796875,10.483853340148926,-4.661218643188477,1.561017632484436
1729696938540741400,2.022741455078125,10.093523979187012,-4.3549370765686035,1.5227324962615967
1729696938550510600,2.032510498046875,9.971489906311035,-4.041178226470947,1.4174482822418213
1729696938560279800,2.04227978515625,9.712766647338867,-4.000500202178955,1.7189439535140991
1729696938570049000,2.052049072265625,9.640981674194336,-3.8210387229919434,2.2648067474365234
1729696938579818200,2.061818359375,9.595518112182617,-3.576671600341797,3.0260233879089355
1729696938589587500,2.07158740234375,9.669695854187012,-3.2608189582824707,3.801896095275879
1729696938599356700,2.081356689453125,9.942776679992676,-3.0236306190490723,4.321437835693359
1729696938609126000,2.0911259765625,10.12463092803955,-2.896811008453369,4.591826438903809
1729696938618895000,2.10089501953125,9.985847473144531,-2.9231319427490234,4.8074798583984375
1729696938628664300,2.110664306640625,9.585947036743164,-2.6575286388397217,5.006083965301514
1729696938638433500,2.12043359375,8.97787094116211,-2.9255247116088867,4.824229717254639
1729696938648202800,2.13020263671875,8.460721969604492,-3.2584261894226074,5.204688549041748
1729696938657972000,2.139971923828125,8.187939643859863,-3.708575963973999,5.712265968322754
1729696938667741400,2.149741455078125,8.388936996459961,-3.849752426147461,5.726622581481934
1729696938677510700,2.1595107421875,9.028120040893555,-3.559921979904175,5.530411243438721
1729696938687279900,2.16927978515625,10.05284595489502,-2.9063823223114014,4.78594446182251
1729696938697049000,2.179049072265625,10.82124137878418,-2.7652056217193604,3.809074640274048
1729696938706818300,2.188818359375,11.379068374633789,-2.8704898357391357,3.2273194789886475
1729696938716587500,2.19858740234375,11.280961990356445,-2.817847728729248,3.1818559169769287
1729696938726356700,2.208356689453125,10.794919967651367,-2.762812852859497,3.2967114448547363
1729696938736126000,2.2181259765625,10.234700202941895,-2.8226335048675537,3.2344980239868164
1729696938745895200,2.227895263671875,9.142974853515625,-2.5307090282440186,2.95184588432312
1729696938755664400,2.237664306640625,8.276473999023438,-2.5307090282440186,2.722134828567505
1729696938765433600,2.24743359375,8.503792762756348,-2.8058836460113525,2.7101707458496094
1729696938775202800,2.257202880859375,8.717052459716797,-2.92073917388916,2.944667339324951
1729696938784972000,2.266971923828125,9.135796546936035,-2.848954439163208,3.2129626274108887
1729696938794741200,2.2767412109375,9.368199348449707,-2.793919563293457,3.514458179473877
1729696938804510500,2.286510498046875,9.294022560119629,-1.9127626419067383,3.0499515533447266
1729696938814279700,2.29627978515625,8.930013656616211,-2.9398818016052246,3.2177481651306152
1729696938824049200,2.306049072265625,8.446364402770996,-3.976572036743164,3.6798620223999023
1729696938833818400,2.315818359375,7.7832536697387695,-4.323830604553223,4.122534275054932
1729696938843587600,2.325587646484375,7.440781116485596,-3.528815269470215,4.223331928253174
1729696938853356800,2.335356689453125,7.701898097991943,-2.3365912437438965,4.000500202178955
1729696938863126000,2.3451259765625,8.369794845581055,-1.5825530290603638,3.569493293762207
1729696938872895200,2.354895263671875,9.087940216064453,-1.8529419898986816,3.677469253540039
1729696938882664400,2.36466455078125,9.499805450439453,-1.9414764642715454,3.7348971366882324
1729696938892433700,2.37443359375,9.784550666809082,-1.8194425106048584,3.6269209384918213
1729696938902203000,2.384202880859375,9.942776679992676,-0.8811569213867188,2.6407787799835205
1729696938911972000,2.39397216796875,9.926026344299316,-2.073380708694458,2.496910333633423
1729696938921741300,2.4037412109375,10.076774597167969,-2.4921247959136963,2.4466612339019775
1729696938931510500,2.413510498046875,10.14616584777832,-2.5232315063476562,1.9462621212005615
1729696938941279700,2.42327978515625,10.098309516906738,-2.573779821395874,2.2241287231445312
1729696938951049000,2.433049072265625,10.227521896362305,-1.8936200141906738,2.7340989112854004
1729696938960818400,2.442818359375,10.486246109008789,-0.9625129103660583,2.786741018295288
1729696938970587600,2.452587646484375,10.91456127166748,-0.610468864440918,2.8154549598693848
1729696938980356900,2.46235693359375,11.118250846862793,-1.098903775215149,3.514458179473877
1729696938990126000,2.4721259765625,11.707183837890625,0.4788636267185211,3.5982069969177246
1729696938999895300,2.481895263671875,11.747861862182617,-0.5578267574310303,4.007678985595703
1729696939009664500,2.49166455078125,11.50857925415039,-2.1475582122802734,4.563112735748291
1729696939019433700,2.501433837890625,11.111071586608887,-2.786741018295288,5.039583683013916
1729696939029203000,2.511202880859375,10.27777099609375,-1.5131611824035645,4.079463481903076
1729696939038972200,2.52097216796875,9.514162063598633,-0.2105683982372284,2.676671266555786
1729696939048741400,2.530741455078125,8.95394229888916,-0.3400799036026001,2.0709879398345947
1729696939058510600,2.540510498046875,8.491828918457031,-0.02632104977965355,2.17627215385437
1729696939068279800,2.55027978515625,7.926823139190674,-0.10049854964017868,2.5232315063476562
1729696939078049000,2.560049072265625,8.082356452941895,0.17228323221206665,2.8441689014434814
1729696939087818500,2.569818603515625,8.384151458740234,0.5195416212081909,3.07627272605896
1729696939097587700,2.579587646484375,8.65214729309082,0.44297128915786743,3.5575289726257324
1729696939107357000,2.58935693359375,8.738588333129883,0.4142574071884155,4.254438877105713
1729696939117126100,2.599126220703125,8.714659690856934,-0.18903298676013947,4.632504463195801
1729696939126895400,2.608895263671875,8.94676399230957,0.4334000051021576,3.8617167472839355
1729696939136664600,2.61866455078125,8.101499557495117,-0.5721837282180786,4.1368913650512695
1729696939146433800,2.628433837890625,7.526922702789307,-0.8883354067802429,4.587040901184082
1729696939156203000,2.638203125,6.842276573181152,-0.45254257321357727,3.8234314918518066
1729696939165972200,2.64797216796875,6.3131632804870605,-0.21774685382843018,3.569493293762207
1729696939175741400,2.657741455078125,5.884549140930176,-0.11724831163883209,3.4139597415924072
1729696939185510700,2.6675107421875,5.309972763061523,-0.27756741642951965,3.7037904262542725
1729696939195280000,2.67727978515625,4.66361141204834,-0.15074782073497772,3.4402806758880615
1729696939205049300,2.68704931640625,4.146462440490723,-0.08374879509210587,2.997309446334839
1729696939214818600,2.696818603515625,3.9167516231536865,0.22971096634864807,2.7125635147094727
1729696939224587800,2.706587890625,4.017250061035156,0.5602195858955383,2.808276414871216
1729696939234357000,2.71635693359375,4.53200626373291,0.924227774143219,3.054737091064453
1729696939244126200,2.726126220703125,5.080261707305908,1.1108678579330444,3.61017107963562
1729696939253895400,2.7358955078125,5.640480995178223,1.225723385810852,3.7923247814178467
1729696939263664600,2.74566455078125,5.915955066680908,1.3645070791244507,3.811467409133911
1729696939273433900,2.755433837890625,5.755336761474609,1.5346965789794922,3.7061831951141357
1729696939283203000,2.765203125,5.549553871154785,1.5514464378356934,3.4618160724639893
1729696939292972300,2.77497216796875,5.494519233703613,1.6615161895751953,3.3230323791503906
1729696939302741500,2.784741455078125,5.487340450286865,1.9103697538375854,3.1722846031188965
1729696939312510700,2.7945107421875,5.666802406311035,2.135594129562378,3.2512478828430176
1729696939322280200,2.8042802734375,5.930311679840088,2.3294129371643066,3.411566972732544
1729696939332049400,2.81404931640625,6.267699718475342,2.5088746547698975,3.7277185916900635
1729696939341818600,2.823818603515625,6.543173313140869,2.7125635147094727,4.1297125816345215
1729696939351587800,2.833587890625,6.80159854888916,2.8752756118774414,4.426722049713135
1729696939361357000,2.843357177734375,7.110571384429932,3.0643084049224854,4.512863636016846
1729696939371126300,2.853126220703125,7.325925827026367,3.2679975032806396,4.450650215148926
1729696939380895500,2.8628955078125,7.316354274749756,3.2751760482788086,4.455435752868652
1729696939390664700,2.872664794921875,7.275676250457764,3.356531858444214,4.522434711456299
1729696939400434000,2.882433837890625,7.309175968170166,3.442673683166504,4.323830604553223
1729696939410203100,2.892203125,7.512565612792969,3.6870405673980713,4.036392688751221
1729696939419972400,2.901972412109375,7.52213716506958,3.6942191123962402,3.983750581741333
1729696939429741600,2.911741455078125,7.373782157897949,3.583850145339966,3.969393730163574
1729696939439510800,2.9215107421875,7.244569778442383,3.7133617401123047,3.7516467571258545
1729696939449280000,2.931280029296875,7.249355316162109,3.864109516143799,3.390031576156616
1729696939459049500,2.941049560546875,7.292426109313965,3.85693097114563,3.1339993476867676
1729696939468818700,2.950818603515625,7.2661051750183105,3.859323740005493,2.8298118114471436
1729696939478588000,2.960587890625,7.1488566398620605,3.9167516231536865,2.614457845687866
1729696939488357000,2.970357177734375,7.026822566986084,3.9143588542938232,2.4681966304779053
1729696939498126300,2.980126220703125,7.0531439781188965,3.864109516143799,2.698206663131714
1729696939507895600,2.9898955078125,7.170392036437988,3.828217029571533,3.1483564376831055
1729696939517664800,2.999664794921875,7.450352191925049,3.9406797885894775,3.4474592208862305
1729696939527434000,3.00943408203125,7.823931694030762,4.067499160766602,3.684647798538208
1729696939537203200,3.019203125,7.998608112335205,4.017250061035156,3.9789650440216064
1729696939546972400,3.028972412109375,8.048856735229492,4.086641788482666,4.287938117980957
1729696939556742000,3.038741943359375,8.020143508911133,4.203890323638916,4.249652862548828
1729696939566511000,3.048510986328125,7.895716667175293,4.256831645965576,4.036392688751221
1729696939576280300,3.0582802734375,7.723433494567871,4.347758769989014,3.7372899055480957
1729696939586049500,3.068049560546875,7.610970497131348,4.436293125152588,3.631706476211548
1729696939595818800,3.07781884765625,7.495816230773926,4.398007869720459,3.70139741897583
1729696939605588000,3.087587890625,7.45274543762207,4.381258487701416,3.9023945331573486
1729696939615357200,3.097357177734375,7.4479594230651855,4.297509670257568,3.9622151851654053
1729696939625126400,3.10712646484375,7.366603374481201,4.179962158203125,3.6966118812561035
1729696939634895600,3.1168955078125,7.045965194702148,4.048357009887695,3.3589248657226562
1729696939644664800,3.126664794921875,6.485745906829834,3.7731821537017822,3.5910286903381348
1729696939654434000,3.13643408203125,5.997310638427734,3.459423303604126,3.835395574569702
1729696939664203500,3.14620361328125,5.932704448699951,3.2512478828430176,3.6870405673980713
1729696939673972700,3.15597265625,6.04038143157959,3.2727832794189453,3.1555347442626953
1729696939683742000,3.165741943359375,6.167201042175293,3.363710403442383,2.6479573249816895
1729696939693511200,3.17551123046875,6.234200477600098,3.085843801498413,2.2671995162963867
1729696939703280400,3.1852802734375,6.143272876739502,2.810669183731079,1.5705889463424683
1729696939713049600,3.195049560546875,5.621338367462158,2.5618157386779785,0.7061817646026611
1729696939722818800,3.20481884765625,4.596612453460693,1.9438693523406982,0.35922250151634216
1729696939732588000,3.214588134765625,2.968595504760742,0.5338985323905945,0.9577272534370422
1729696939742357200,3.224357177734375,0.9122636318206787,-0.6559324860572815,1.1539387702941895
1729696939752126500,3.23412646484375,-3.7540395259857178,-1.7644076347351074,-0.24167509377002716
1729696939761895700,3.243895751953125,-2.652743101119995,-2.95184588432312,-0.064606212079525
1729696939771665000,3.253664794921875,-3.5671002864837646,-3.990929126739502,-0.7899305820465088
1729696939781434400,3.263434326171875,-3.2512478828430176,-5.3318071365356445,-1.9007984399795532
1729696939791203600,3.27320361328125,-3.1746773719787598,-7.004988193511963,-2.4394826889038086
1729696939800972800,3.282972900390625,-2.7029922008514404,-8.398508071899414,-2.784348249435425
1729696939810742000,3.292741943359375,-0.6415755748748779,-9.595518112182617,-4.409972190856934
1729696939820511200,3.30251123046875,1.505982756614685,-10.275378227233887,-5.920740604400635
1729696939830280400,3.312280517578125,3.4785659313201904,-10.2418794631958,-7.457530975341797
1729696939840049700,3.322049560546875,5.595017433166504,-10.28016471862793,-8.40329360961914
1729696939849819000,3.33181884765625,7.33549690246582,-9.854242324829102,-8.702695846557617
1729696939859588000,3.341588134765625,8.185546875,-9.028120040893555,-7.694719314575195
1729696939869357300,3.351357421875,7.649255752563477,-8.781659126281738,-6.272485256195068
1729696939879126800,3.361126708984375,6.725028038024902,-8.894122123718262,-5.281258583068848
1729696939888896000,3.37089599609375,5.796014785766602,-8.949156761169434,-4.4721856117248535
1729696939898665200,3.380665283203125,5.242973327636719,-9.09990406036377,-4.002892971038818
1729696939908434400,3.390434326171875,5.72422981262207,-9.435198783874512,-5.013262748718262
1729696939918203600,3.40020361328125,6.488138675689697,-9.315557479858398,-7.165606498718262
1729696939927972900,3.409972900390625,6.27487850189209,-8.772088050842285,-9.028120040893555
1729696939937742000,3.4197421875,5.7170515060424805,-8.530113220214844,-10.893026351928711
1729696939947511300,3.42951123046875,5.365306377410889,-8.72901725769043,-12.528221130371094
1729696939957280500,3.439280517578125,5.250152111053467,-8.65214729309082,-13.754243850708008
1729696939967050000,3.449050048828125,5.140082359313965,-8.429615020751953,-14.778671264648438
1729696939976819200,3.458819091796875,5.2645087242126465,-8.257331848144531,-15.79382610321045
1729696939986588400,3.46858837890625,5.733801364898682,-7.65164852142334,-16.655839920043945
1729696939996357600,3.478357666015625,5.7409796714782715,-6.662814617156982,-17.36680793762207
1729696940006126800,3.488126953125,5.463412284851074,-5.748157978057861,-18.429819107055664
1729696940015896000,3.49789599609375,5.432305812835693,-4.685146808624268,-19.938194274902344
1729696940025665300,3.507665283203125,5.235795021057129,-3.421138286590576,-20.773588180541992
1729696940035434500,3.5174345703125,5.470590591430664,-2.7915267944335938,-21.285951614379883
1729696940045203700,3.52720361328125,5.690730571746826,-2.8513472080230713,-21.506092071533203
1729696940054973000,3.536972900390625,5.554339408874512,-2.621636390686035,-20.86690902709961
1729696940064742100,3.5467421875,5.633302688598633,-2.525923490524292,-19.73450469970703
1729696940074511600,3.55651171875,5.930311679840088,-2.472982168197632,-18.539888381958008
1729696940084280800,3.56628076171875,6.5527448654174805,-1.8888343572616577,-17.500804901123047
1729696940094050000,3.576050048828125,7.479066371917725,-1.77397882938385,-15.789040565490723
1729696940103819300,3.5858193359375,27.08914566040039,-2.973381280899048,-9.521340370178223
1729696940113588500,3.59558837890625,14.764313697814941,1.6088740825653076,-9.346664428710938
1729696940123357700,3.605357666015625,4.984548568725586,-0.5817549824714661,-13.435699462890625
1729696940133127000,3.615126953125,3.967000722885132,-5.379663467407227,-15.121143341064453
1729696940142896000,3.624896240234375,2.834597587585449,-4.886443138122559,-13.023834228515625
1729696940152665300,3.634665283203125,2.3437697887420654,-5.446662425994873,-10.057631492614746
1729696940162434800,3.644434814453125,1.4629119634628296,-5.147260665893555,-8.920442581176758
1729696940172204000,3.6542041015625,0.24406790733337402,-4.244867324829102,-8.424829483032227
1729696940181973200,3.66397314453125,0.5626124143600464,-3.318246841430664,-8.168797492980957
1729696940191742500,3.673742431640625,-0.5099703073501587,-2.372483730316162,-7.558029651641846
1729696940201511700,3.68351171875,-3.1316065788269043,-3.4498519897460938,-6.49770975112915
1729696940211281000,3.693281005859375,-4.510470867156982,-4.141676902770996,-4.809872627258301
1729696940221050000,3.703050048828125,-4.704289436340332,-2.918346405029297,-4.982155799865723
1729696940230819300,3.7128193359375,-3.6894333362579346,-4.079463481903076,-5.927918910980225
1729696940240588500,3.722588623046875,-3.0260233879089355,-4.704289436340332,-6.372983932495117
1729696940250357800,3.732357666015625,0.08374879509210587,-5.149653434753418,-8.077570915222168
1729696940260127000,3.742126953125,3.1555347442626953,-4.896014213562012,-8.618648529052734
1729696940269896400,3.751896484375,2.420340061187744,-6.006882190704346,-7.2661051750183105
1729696940279665700,3.761665771484375,0.8234301209449768,-5.690730571746826,-7.392924785614014
1729696940289435000,3.771434814453125,-0.24167509377002716,-4.673182487487793,-8.791230201721191
1729696940299204000,3.7812041015625,0.05503492057323456,-4.247260093688965,-8.944371223449707
1729696940308973300,3.790973388671875,-0.038285162299871445,-3.842574119567871,-8.66889762878418
1729696940318742500,3.800742431640625,-0.48843491077423096,-4.737788677215576,-8.089534759521484
1729696940328511700,3.81051171875,0.39511483907699585,-6.370591163635254,-7.378567695617676
1729696940338281000,3.820281005859375,1.9438693523406982,-6.669992923736572,-6.394519329071045
1729696940348050200,3.83005029296875,3.0499515533447266,-6.74656343460083,-11.419746398925781
1729696940357819600,3.839819580078125,0.2392822653055191,-8.187939643859863,-12.676875114440918
1729696940367588900,3.8495888671875,-3.0738797187805176,-7.038786888122559,-12.482757568359375
1729696940377358000,3.859358154296875,-1.568196177482605,-8.709874153137207,-19.018753051757812
1729696940387127300,3.869127197265625,-1.1276177167892456,-7.151249408721924,-16.05015754699707
1729696940396896500,3.878896484375,1.252044439315796,-5.705087184906006,-16.232011795043945
1729696940406665700,3.888665771484375,3.1387851238250732,-6.148058891296387,-16.366008758544922
1729696940416435000,3.89843505859375,3.945465326309204,-6.0140604972839355,-15.027823448181152
1729696940426204200,3.9082041015625,3.445066452026367,-6.0834527015686035,-13.73480224609375
1729696940435973600,3.9179736328125,2.6623141765594482,-7.4240312576293945,-12.346366882324219
1729696940445742800,3.927742919921875,2.0063817501068115,-8.216653823852539,-10.512567520141602
1729696940455512000,3.937511962890625,3.638885021209717,-9.839884757995605,-8.647361755371094
1729696940465281300,3.94728125,4.936692237854004,-11.604292869567871,-8.487042427062988
1729696940475050500,3.957050537109375,3.928715705871582,-11.453245162963867,-8.43440055847168
1729696940484819700,3.96681982421875,2.3461625576019287,-9.27727222442627,-9.315557479858398
1729696940494589000,3.9765888671875,1.8936200141906738,-7.268497943878174,-9.767801284790039
1729696940504358100,3.986358154296875,1.623231053352356,-5.221437931060791,-9.181260108947754
1729696940514127400,3.99612744140625,2.0997018814086914,-5.025226593017578,-8.439186096191406
1729696940523896600,4.005896484375,1.903191328048706,-5.472983360290527,-7.615756034851074
1729696940533666000,4.015666015625,1.158724308013916,-5.870192050933838,-6.004489421844482
1729696940543435300,4.025435302734375,0.3568296730518341,-6.835097789764404,-4.872086048126221
1729696940553204500,4.03520458984375,0.3113660514354706,-7.079464912414551,-4.4961137771606445
1729696940562973700,4.0449736328125,0.9074779748916626,-6.890132904052734,-4.278367042541504
1729696940572743000,4.054742919921875,0.766002357006073,-6.849454879760742,-4.309473514556885
1729696940582512000,4.06451220703125,1.1276177167892456,-7.2349982261657715,-4.249652862548828
1729696940592281300,4.07428125,2.2887349128723145,-6.760920524597168,-4.706682205200195
1729696940602050600,4.084050537109375,2.0063817501068115,-5.947061538696289,-5.812764644622803
1729696940611820000,4.093820068359375,1.1635099649429321,-4.8314080238342285,-6.372983932495117
1729696940621589200,4.10358935546875,0.9481559991836548,-3.638885021209717,-6.631708145141602
1729696940631358500,4.1133583984375,1.1324033737182617,-3.1794631481170654,-6.10259485244751
1729696940641127700,4.123127685546875,1.103689432144165,-3.3708889484405518,-5.348556995391846
1729696940650897000,4.13289697265625,1.6040884256362915,-4.00528621673584,-4.872086048126221
1729696940660666000,4.142666015625,1.6471593379974365,-4.132105827331543,-4.735395908355713
1729696940670435300,4.152435302734375,1.9414764642715454,-4.536791801452637,-4.852943420410156
1729696940680204500,4.16220458984375,2.23848557472229,-4.7473602294921875,-5.0587263107299805
1729696940689973800,4.171973876953125,2.341377019882202,-4.814658164978027,-5.226223945617676
1729696940699743000,4.181742919921875,2.2983062267303467,-4.555934429168701,-5.324329376220703
1729696940709512400,4.191512451171875,2.542673110961914,-4.53200626373291,-5.551946640014648
1729696940719281700,4.20128173828125,2.3748764991760254,-4.666004180908203,-5.846263885498047
1729696940729051000,4.21105078125,2.3150558471679688,-5.0587263107299805,-6.049952983856201
1729696940738820000,4.220820068359375,2.2743778228759766,-5.415555953979492,-5.664409637451172
1729696940748589300,4.23058935546875,2.4227328300476074,-5.84147834777832,-5.228616714477539
1729696940758358500,4.240358642578125,2.573779821395874,-5.913562297821045,-4.907978534698486
1729696940768127700,4.250127685546875,2.6072793006896973,-6.071488380432129,-5.075475692749023
1729696940777897000,4.25989697265625,2.8680970668792725,-6.179165363311768,-5.56869649887085
1729696940787666400,4.26966650390625,3.380460262298584,-6.143272876739502,-6.160022735595703
1729696940797435600,4.279435546875,3.70139741897583,-6.224628925323486,-6.488138675689697
1729696940807204900,4.289204833984375,3.8210387229919434,-5.892026424407959,-6.780063152313232
1729696940816974000,4.29897412109375,3.945465326309204,-5.501697540283203,-7.28046178817749
1729696940826743300,4.308743408203125,3.969393730163574,-6.035595893859863,-7.060322284698486
1729696940836512500,4.318512451171875,3.849752426147461,-6.255735874176025,-6.935596466064453
1729696940846281700,4.32828173828125,3.6894333362579346,-6.009274959564209,-7.007380962371826
1729696940856051000,4.338051025390625,4.026821613311768,-5.152046203613281,-6.473781585693359
1729696940865820200,4.347820068359375,4.431507587432861,-4.998905658721924,-6.636493682861328
1729696940875589600,4.357589599609375,4.955834865570068,-5.1544389724731445,-6.926024913787842
1729696940885358800,4.36735888671875,5.039583683013916,-4.591826438903809,-6.701099872589111
1729696940895128000,4.377128173828125,5.125725269317627,-4.8792643547058105,-6.7896342277526855
1729696940904897300,4.386897216796875,5.113760948181152,-5.231009483337402,-6.868597507476807
1729696940914666500,4.39666650390625,4.462614059448242,-5.767300605773926,-7.0531439781188965
1729696940924435700,4.406435791015625,3.3613176345825195,-6.310770511627197,-7.306783199310303
1729696940934205000,4.416204833984375,2.214557409286499,-7.11775016784668,-8.072785377502441
1729696940943974100,4.42597412109375,1.4054841995239258,-7.500601768493652,-9.131011009216309
1729696940953743600,4.43574365234375,2.465803623199463,-8.357830047607422,-22.997716903686523
1729696940963512800,4.445512939453125,0.009571290574967861,-8.336295127868652,-15.070894241333008
1729696940973282000,4.455281982421875,-0.4549354016780853,-8.65214729309082,-13.526626586914062
1729696940983051300,4.46505126953125,-0.5721837282180786,-9.48066234588623,-11.896217346191406
1729696940992820500,4.474820556640625,-0.48843491077423096,-10.03131103515625,-10.160523414611816
1729696941002589700,4.484589599609375,-0.09571290761232376,-10.69681453704834,-8.82951545715332
1729696941012359000,4.49435888671875,0.5123631358146667,-11.549257278442383,-7.945965766906738
1729696941022128000,4.504128173828125,2.700599431991577,-12.343974113464355,-11.982358932495117
1729696941031897300,4.5138974609375,2.4921247959136963,-12.839587211608887,-7.2349982261657715
1729696941041666600,4.52366650390625,2.8680970668792725,-12.875479698181152,-5.8749775886535645
1729696941051436000,4.53343603515625,2.7915267944335938,-12.619148254394531,-4.278367042541504
1729696941061205200,4.543205322265625,2.3198416233062744,-11.496315956115723,-3.2129626274108887
1729696941070974500,4.552974365234375,0.9768698215484619,-8.058428764343262,-3.3517463207244873
1729696941080743700,4.56274365234375,-0.28504499793052673,-8.350651741027832,-1.8290138244628906
1729696941090513000,4.572512939453125,-1.4222339391708374,-8.362615585327148,-1.319043517112732
1729696941100282000,4.5822822265625,-1.7691932916641235,-7.8693952560424805,-1.4605190753936768
1729696941110051300,4.59205126953125,-1.7572290897369385,-7.599006652832031,-1.3621143102645874
1729696941119820800,4.60182080078125,-1.9151554107666016,-7.407281398773193,-1.0654042959213257
1729696941129590000,4.611590087890625,-1.8146568536758423,-5.6309099197387695,0.1986042857170105
1729696941139359200,4.621359130859375,-0.8330013751983643,1.6399807929992676,0.6296114325523376
1729696941149128400,4.63112841796875,-2.801098108291626,-0.08614161610603333,-2.3605196475982666
1729696941158897700,4.640897705078125,-3.1746773719787598,-0.29700911045074463,-3.0957143306732178
1729696941168667000,4.6506669921875,-2.8776683807373047,-1.3334003686904907,-3.5479576587677
1729696941178436000,4.66043603515625,-3.5671002864837646,-3.9933218955993652,-4.517649173736572
1729696941188205300,4.670205322265625,-3.303889751434326,-8.71226692199707,-8.041678428649902
1729696941197974500,4.679974609375,-4.781158924102783,-12.257832527160645,-9.20279598236084
1729696941207744000,4.689743896484375,-4.620540618896484,-15.52104377746582,-10.217950820922852
1729696941217513200,4.69951318359375,-4.563112735748291,-17.306987762451172,-8.994620323181152
1729696941227282400,4.709282470703125,-4.048357009887695,-17.290237426757812,-7.692326545715332
1729696941237051600,4.7190517578125,-3.583850145339966,-16.670196533203125,-8.15683364868164
1729696941246820900,4.72882080078125,-3.531208038330078,-14.922539710998535,-7.596613883972168
1729696941256590000,4.738590087890625,-2.999702215194702,-13.162618637084961,-7.431210041046143
1729696941266359300,4.748359375,-1.4270195960998535,-10.174880027770996,-7.682755470275879
1729696941276128800,4.758128662109375,15.449259757995605,-4.218546390533447,-9.073583602905273
1729696941285898000,4.76789794921875,6.198307991027832,-3.809074640274048,-7.498208999633789
1729696941295667200,4.777667236328125,1.0701899528503418,-4.587040901184082,-4.510470867156982
1729696941305436400,4.7874365234375,-0.35443684458732605,-7.773682594299316,-2.9327032566070557
1729696941315205600,4.79720556640625,-0.7731808423995972,-7.764111042022705,-1.434198021888733
1729696941324974800,4.806974853515625,-1.319043517112732,-7.201498985290527,-1.134796142578125
1729696941334744000,4.816744140625,-1.6734803915023804,-4.29033088684082,-1.165902853012085
1729696941344513300,4.82651318359375,-2.5785655975341797,-4.589433670043945,-2.3533411026000977
1729696941354282500,4.836282470703125,-3.2608189582824707,-4.400400638580322,-2.8513472080230713
1729696941364052000,4.846052001953125,-3.864109516143799,-4.891228675842285,-3.9095730781555176
1729696941373821200,4.8558212890625,-4.225724697113037,-5.044369220733643,-4.287938117980957
1729696941383590400,4.86559033203125,-4.000500202178955,-6.725028038024902,-3.801896095275879
1729696941393359600,4.875359619140625,-3.555136203765869,-7.385746002197266,-2.8920252323150635
1729696941403128800,4.88512890625,-3.708575963973999,-8.063214302062988,-2.4849462509155273
1729696941412898000,4.89489794921875,-3.3517463207244873,-8.00100040435791,-1.2376874685287476
1729696941422667300,4.904667236328125,-2.975774049758911,-7.888537883758545,-0.13878370821475983
1729696941432436500,4.9144365234375,-2.635993242263794,-6.7345991134643555,0.05024927482008934
1729696941442206000,4.9242060546875,-1.8098711967468262,-7.112964630126953,-0.35443684458732605
1729696941451975200,4.93397509765625,-1.4676976203918457,-7.294818878173828,-0.5769693851470947
1729696941461744400,4.943744384765625,-1.7045869827270508,-9.073583602905273,-0.9960124492645264
1729696941471513600,4.953513671875,-2.3844478130340576,-11.252248764038086,-0.8282157182693481
1729696941481282800,4.96328271484375,-2.755634307861328,-10.13180923461914,-1.1084750890731812
1729696941491052000,4.973052001953125,-2.7795627117156982,-10.876276016235352,-1.2448660135269165
1729696941500821200,4.9828212890625,-2.865704298019409,-13.421341896057129,-1.165902853012085
1729696941510590500,4.992590576171875,-3.0667014122009277,-14.472389221191406,-2.417947292327881
1729696941520360000,5.00235986328125,-2.7364916801452637,-14.247164726257324,-3.4474592208862305
1729696941530129200,5.012129150390625,-2.693420886993408,-12.296117782592773,-3.1627132892608643
1729696941539898400,5.0218984375,-2.590529680252075,-10.82124137878418,-2.9231319427490234
1729696941549667600,5.03166748046875,-2.379662036895752,-11.522936820983887,-2.5474588871002197
1729696941559436800,5.041436767578125,-2.255235433578491,-10.96032428741455,-2.3054845333099365
1729696941569206000,5.0512060546875,-2.2576282024383545,-10.965109825134277,-2.504088878631592
1729696941578975200,5.060975341796875,-2.1260228157043457,-9.985847473144531,-2.8058836460113525
1729696941588744700,5.07074462890625,-2.214557409286499,-11.831610679626465,-3.1866414546966553
1729696941598514000,5.080513916015625,-4.091427803039551,-13.548161506652832,-3.5024940967559814
1729696941608283100,5.090283203125,-2.9327032566070557,-11.936894416809082,-4.223331928253174
1729696941618052400,5.10005224609375,-1.86729896068573,-9.095118522644043,-3.70139741897583
1729696941627821600,5.109821533203125,-1.6854444742202759,-8.539685249328613,-3.5359935760498047
1729696941637590800,5.1195908203125,-1.446162223815918,-6.916453838348389,-2.942274570465088
1729696941647360000,5.129360107421875,-0.8883354067802429,-4.273581027984619,-1.4437693357467651
1729696941657129200,5.139129150390625,-0.3807578980922699,-3.9023945331573486,-1.2065808773040771
1729696941666898400,5.1488984375,-0.13160525262355804,-4.067499160766602,-0.9936196208000183
1729696941676668000,5.15866796875,-0.4453641176223755,-6.581458568572998,-0.6487540602684021
1729696941686437000,5.16843701171875,-0.3807578980922699,-23.06232452392578,0.8715856671333313
1729696941696206300,5.178206298828125,-2.080559253692627,-28.834409713745117,2.1786649227142334
1729696941705975600,5.1879755859375,-2.4538395404815674,-20.809480667114258,0.13878370821475983
1729696941715744800,5.197744873046875,-1.9728822708129883,-16.246368408203125,-2.444268226623535
1729696941725514000,5.207513916015625,-0.5458626747131348,-12.614362716674805,-1.7620147466659546
1729696941735283200,5.217283203125,0.08853443711996078,-10.076774597167969,-0.9409775137901306
1729696941745052400,5.227052490234375,0.14356936514377594,-8.86780071258545,0.05742774158716202
1729696941754822000,5.23682177734375,-0.1746760457754135,-7.998608112335205,0.5626124143600464
1729696941764591000,5.246591064453125,-0.8835497498512268,-7.39053201675415,0.40229329466819763
1729696941774360300,5.2563603515625,-1.4988043308258057,-7.694719314575195,0.20817556977272034
1729696941784129500,5.266129638671875,-2.059023857116699,-8.5731840133667,-0.21296121180057526
1729696941793898800,5.275898681640625,-2.307877540588379,-9.51894760131836,-0.8787640929222107
1729696941803668000,5.28566796875,-2.2887349128723145,-10.272985458374023,-1.438983678817749
1729696941813437200,5.295437255859375,-2.2815563678741455,-10.799705505371094,-1.8026927709579468
1729696941823206400,5.305206298828125,-2.2241287231445312,-10.936097145080566,-2.049452543258667
1729696941832976000,5.314975830078125,-2.1164517402648926,-10.737492561340332,-2.3270199298858643
1729696941842745000,5.3247451171875,-1.970489501953125,-10.275378227233887,-2.3605196475982666
1729696941852514300,5.334514404296875,-1.7356936931610107,-9.63619613647461,-2.190629243850708
1729696941862283500,5.344283447265625,-1.4198411703109741,-9.267701148986816,-2.1786649227142334
1729696941872052700,5.354052734375,-1.158724308013916,-9.186046600341797,-2.2600209712982178
1729696941881822000,5.363822021484375,-1.0247262716293335,-9.741479873657227,-2.338984251022339
1729696941891591200,5.373591064453125,-0.6702894568443298,-10.143773078918457,-2.4370899200439453
1729696941901360400,5.3833603515625,-0.1866401731967926,-9.966704368591309,-2.7508487701416016
1729696941911129900,5.3931298828125,6.7657060623168945,-10.443175315856934,-5.166403293609619
1729696941920899000,5.402899169921875,4.575077056884766,-9.964311599731445,-4.462614059448242
1729696941930668300,5.412668212890625,2.863311290740967,-10.680065155029297,-3.746861219406128
1729696941940437500,5.4224375,0.8739784955978394,-10.632207870483398,-2.832204818725586
1729696941950206700,5.432206787109375,0.6798607110977173,-10.78295612335205,-2.753241539001465
1729696941959976000,5.441975830078125,0.9553344249725342,-10.948360443115234,-2.472982168197632
1729696941969745200,5.4517451171875,1.2975081205368042,-10.9002046585083,-2.1092731952667236
1729696941979514400,5.461514404296875,1.7979071140289307,-11.221141815185547,-1.415055513381958
1729696941989283800,5.471283935546875,2.566601276397705,-11.407781600952148,-1.2592228651046753
1729696941999053000,5.481052978515625,2.841775894165039,-11.290534019470215,-1.5179468393325806
1729696942008822300,5.490822265625,2.482553482055664,-10.96032428741455,-1.5155540704727173
1729696942018591500,5.500591552734375,2.2337000370025635,-10.646565437316895,-1.342971682548523
1729696942028360700,5.510360595703125,2.762812852859497,-10.416853904724121,-1.4629119634628296
1729696942038130000,5.5201298828125,4.2281174659729,-10.351948738098145,-1.8170497417449951
1729696942047899100,5.529899169921875,4.01246452331543,-10.356734275817871,-1.561017632484436
1729696942057668600,5.539668701171875,2.7819554805755615,-10.328021049499512,-1.2831511497497559
1729696942067437800,5.549437744140625,1.6471593379974365,-10.457531929016113,-0.6224330067634583
1729696942077207000,5.55920703125,0.8955138921737671,-10.919346809387207,-0.20099709928035736
1729696942086976300,5.568976318359375,0.5745765566825867,-11.64018440246582,0.1052841991186142
1729696942096745500,5.578745361328125,0.37597227096557617,-12.128620147705078,0.7779664397239685
1729696942106514700,5.5885146484375,0.062213387340307236,-12.844372749328613,1.2352946996688843
1729696942116284000,5.598283935546875,-0.7564310431480408,-12.815658569335938,1.5753746032714844
1729696942126053000,5.60805322265625,-1.7668004035949707,-12.217154502868652,1.9151554107666016
1729696942135822300,5.617822265625,-2.6575286388397217,-11.731112480163574,2.23848557472229
1729696942145591800,5.627591796875,-2.913560628890991,-11.673684120178223,2.5857439041137695
1729696942155361000,5.637361083984375,-2.0135602951049805,-11.934501647949219,2.310270309448242
1729696942165130200,5.647130126953125,-0.5051847100257874,-11.934501647949219,1.2951152324676514
1729696942174899500,5.6568994140625,0.17228323221206665,-11.503495216369629,0.19142581522464752
1729696942184668700,5.666668701171875,0.3975076675415039,-10.984251976013184,0.06939185410737991
1729696942194438000,5.67643798828125,0.3448655605316162,-10.359127044677734,0.7564310431480408
1729696942204207000,5.68620703125,0.4094717800617218,-9.609874725341797,1.2400803565979004
1729696942213976600,5.6959765625,0.35922250151634216,-8.922835350036621,1.5155540704727173
1729696942223745800,5.705745849609375,0.019142581149935722,-8.293224334716797,1.350150227546692
1729696942233515000,5.715514892578125,-0.4334000051021576,-7.823931694030762,0.8234301209449768
1729696942243284200,5.7252841796875,-0.8668000102043152,-7.569993495941162,0.12442677468061447
1729696942253053400,5.735053466796875,-1.1276177167892456,-7.438388347625732,-0.612861692905426
1729696942262822700,5.74482275390625,-1.072582721710205,-7.290033340454102,-1.292722463607788
1729696942272592000,5.754591796875,-0.9577272534370422,-7.285247802734375,-1.714158296585083
1729696942282361000,5.764361083984375,-0.8258228898048401,-7.237390995025635,-1.7883358001708984
1729696942292130300,5.77413037109375,-0.6607181429862976,-7.108178615570068,-1.6040884256362915
1729696942301899800,5.783899658203125,-0.4501497745513916,-6.985845565795898,-1.2065808773040771
1729696942311669000,5.7936689453125,-0.1052841991186142,-6.820741176605225,-0.732502818107605
1729696942321438200,5.803438232421875,0.2922234535217285,-6.74656343460083,0.02392822690308094
1729696942331207400,5.81320751953125,0.490827739238739,-6.6939215660095215,0.643968403339386
1729696942340976600,5.8229765625,0.5769693851470947,-6.653243541717529,1.256830096244812
1729696942350745900,5.832745849609375,0.7731808423995972,-6.6149582862854,1.7955143451690674
1729696942360515300,5.842515380859375,1.1802598237991333,-6.796812534332275,2.26959228515625
1729696942370284500,5.852284423828125,1.6328023672103882,-7.05553674697876,2.496910333633423
1729696942380053800,5.8620537109375,1.7261223793029785,-7.321139812469482,2.396411895751953
1729696942389823000,5.871822998046875,1.474876046180725,-7.502994537353516,1.970489501953125
1729696942399592200,5.88159228515625,1.2041879892349243,-7.311568737030029,1.2400803565979004
1729696942409361400,5.891361328125,0.8234301209449768,-7.132106781005859,0.39990049600601196
1729696942419130600,5.901130615234375,0.48364928364753723,-7.230212688446045,-0.4405784606933594
1729696942428899800,5.91089990234375,0.3400799036026001,-7.864609718322754,-1.5514464378356934
1729696942438669000,5.9206689453125,0.5817549824714661,-8.96112060546875,-2.652743101119995
1729696942448438500,5.9304384765625,1.3956137895584106,-10.452746391296387,-3.828217029571533
1729696942458207700,5.940207763671875,3.153141975402832,-12.346366882324219,-5.180759906768799
1729696942467977000,5.94997705078125,5.449055194854736,-14.184951782226562,-6.504888534545898
1729696942477746200,5.95974609375,6.595815658569336,-15.401103973388672,-7.39053201675415
1729696942487515400,5.969515380859375,7.191927433013916,-15.32931900024414,-8.465507507324219
1729696942497284600,5.97928466796875,7.462316513061523,-13.976776123046875,-9.26291561126709
1729696942507053800,5.9890537109375,7.136892795562744,-12.147762298583984,-9.823135375976562
1729696942516823300,5.9988232421875,5.935097694396973,-10.79731273651123,-9.779765129089355
1729696942526592500,6.008592529296875,4.0196428298950195,-9.993025779724121,-9.119047164916992
1729696942536361700,6.01836181640625,2.832204818725586,-10.668100357055664,-6.813562393188477
1729696942546131000,6.028130859375,2.5088746547698975,-12.501899719238281,-4.122534275054932
1729696942555900200,6.037900146484375,1.776371717453003,-14.644672393798828,-1.8218353986740112
1729696942565669400,6.04766943359375,0.6008976101875305,-17.175382614135742,-0.4621138870716095
1729696942575438600,6.0574384765625,2.7508487701416016,-20.196619033813477,-1.4126626253128052
1729696942585207800,6.067207763671875,1.9657038450241089,-21.314666748046875,-2.832204818725586
1729696942594977300,6.076977294921875,-2.808276414871216,-18.93500328063965,-0.0023928226437419653
1729696942604746500,6.08674658203125,-4.661218643188477,-14.594423294067383,3.4163525104522705
1729696942614515700,6.096515625,-3.9646079540252686,-8.439186096191406,3.552743434906006
1729696942624285000,6.106284912109375,-2.755634307861328,-4.9486565589904785,2.8513472080230713
1729696942634054100,6.11605419921875,-2.334198474884033,-4.172783374786377,3.1148569583892822
1729696942643823400,6.1258232421875,-1.5849459171295166,-4.417150497436523,3.552743434906006
1729696942653592600,6.135592529296875,0.20338992774486542,-4.47697114944458,4.819443702697754
1729696942663362000,6.145362060546875,-0.9002995491027832,-6.638886451721191,5.116153717041016
1729696942673131300,6.15513134765625,-0.7109674215316772,-8.949156761169434,4.280759811401367
1729696942682900500,6.164900390625,-0.612861692905426,-11.089536666870117,3.9382870197296143
1729696942692669700,6.174669677734375,-1.0151549577713013,-11.910573959350586,4.254438877105713
1729696942702439000,6.18443896484375,-1.568196177482605,-11.55404281616211,4.701896667480469
1729696942712208100,6.1942080078125,-2.200200319290161,-10.342377662658691,5.140082359313965
1729696942721977300,6.203977294921875,-2.817847728729248,-9.490233421325684,4.898406982421875
1729696942731746600,6.21374658203125,-3.397209882736206,-9.114261627197266,4.304687976837158
1729696942741515800,6.223515869140625,-3.1244282722473145,-8.951549530029297,3.531208038330078
1729696942751285200,6.23328515625,-2.9063823223114014,-8.762516975402832,3.037987470626831
1729696942761054500,6.243054443359375,-2.808276414871216,-8.67607593536377,2.700599431991577
1729696942770823700,6.25282373046875,-2.784348249435425,-8.63779067993164,2.4394826889038086
1729696942780593000,6.262593017578125,-2.769991397857666,-8.846264839172363,2.214557409286499
1729696942790362000,6.272362060546875,-2.6336004734039307,-9.325128555297852,2.066202402114868
1729696942800131300,6.28213134765625,-2.533101797103882,-10.02413272857666,1.7548363208770752
1729696942809900800,6.29190087890625,-2.389233350753784,-10.483853340148926,1.438983678817749
1729696942819670000,6.301669921875,-2.2241287231445312,-10.567602157592773,1.2975081205368042
1729696942829439200,6.311439208984375,-2.094916343688965,-10.534102439880371,1.012762188911438
1729696942839208400,6.32120849609375,-2.063809633255005,-10.313663482666016,0.5985047817230225
1729696942848977700,6.330977783203125,-2.097309112548828,-10.043274879455566,0.038285162299871445
1729696942858747000,6.340746826171875,-2.128415822982788,-9.770194053649902,-0.5841478109359741
1729696942868516000,6.35051611328125,-2.159522533416748,-9.35623550415039,-1.1108678579330444
1729696942878285300,6.360285400390625,-2.080559253692627,-9.004191398620605,-1.6328023672103882
1729696942888054500,6.370054443359375,-1.7955143451690674,-8.745766639709473,-2.049452543258667
1729696942897824000,6.379823974609375,-1.5538392066955566,-8.800801277160645,-2.317448616027832
1729696942907593200,6.38959326171875,-1.4174482822418213,-9.052047729492188,-2.4705893993377686
1729696942917362400,6.399362548828125,-1.2233306169509888,-9.27009391784668,-2.817847728729248
1729696942927131600,6.409131591796875,-1.103689432144165,-9.257830619812012,-3.07627272605896
1729696942936900900,6.41890087890625,-1.0031908750534058,-9.207581520080566,-3.0738797187805176
1729696942946670000,6.428670166015625,-0.7492526173591614,-9.39452075958252,-3.294318675994873
1729696942956439600,6.438439453125,-0.8428717851638794,-9.72233772277832,-3.5168511867523193
1729696942966208800,6.448208740234375,-0.6056832075119019,-10.208379745483398,-3.4163525104522705
1729696942975978000,6.45797802734375,-0.5338985323905945,-10.299306869506836,-3.500101327896118
1729696942985747200,6.467747314453125,-0.385543555021286,-10.6657075881958,-3.586242914199829
1729696942995516400,6.477516357421875,-0.040677983313798904,-11.225927352905273,-3.670290946960449
1729696943005285600,6.48728564453125,1.067797064781189,-11.45803165435791,-3.468994617462158
1729696943015054800,6.497054931640625,1.903191328048706,-11.127821922302246,-3.1746773719787598
1729696943024824000,6.506823974609375,2.496910333633423,-10.763813972473145,-2.944667339324951
1729696943034593300,6.51659326171875,3.0714869499206543,-10.443175315856934,-2.6001009941101074
1729696943044362800,6.52636279296875,4.122534275054932,-9.878170013427734,-2.080559253692627
1729696943054132000,6.536132080078125,3.91914439201355,-9.447162628173828,-1.77397882938385
1729696943063901200,6.545901123046875,2.149951219558716,-9.48784065246582,-1.77397882938385
1729696943073670400,6.55567041015625,0.7540382146835327,-9.952347755432129,-1.7356936931610107
1729696943083439600,6.565439697265625,-0.14835500717163086,-9.878170013427734,-1.9055840969085693
1729696943093208800,6.575208740234375,-0.8018946647644043,-9.993025779724121,-1.9896320104599
1729696943102978300,6.584978271484375,-1.2544373273849487,-10.246665000915527,-2.197807550430298
1729696943112747500,6.59474755859375,-1.561017632484436,-10.517353057861328,-2.262413740158081
1729696943122516700,6.604516845703125,-1.7476578950881958,-10.826026916503906,-2.2193429470062256
1729696943132286000,6.614285888671875,-1.8481563329696655,-11.245070457458496,-2.2360928058624268
1729696943142055200,6.62405517578125,-1.9199410676956177,-11.623435020446777,-2.3054845333099365
1729696943151824400,6.633824462890625,-1.9752750396728516,-12.02064323425293,-2.228914260864258
1729696943161593600,6.643593505859375,-1.92951238155365,-12.458828926086426,-1.934298038482666
1729696943171362800,6.65336279296875,-1.7069798707962036,-12.6314115524292,-1.5155540704727173
1729696943181132300,6.66313232421875,-1.2305090427398682,-12.336795806884766,-1.0821540355682373
1729696943190901500,6.672901611328125,0.4740779995918274,-11.963215827941895,-1.1180464029312134
1729696943200670700,6.682670654296875,5.884549140930176,-12.217154502868652,-2.310270309448242
1729696943210440000,6.69243994140625,9.942776679992676,-12.224332809448242,-3.2823543548583984
1729696943220209200,6.702209228515625,8.80798053741455,-12.267403602600098,-2.896811008453369
1729696943229978400,6.711978271484375,7.3522467613220215,-12.422937393188477,-2.4323041439056396
1729696943239747600,6.72174755859375,7.215855598449707,-12.3009033203125,-2.3533411026000977
1729696943249517000,6.73151708984375,7.196712970733643,-11.929716110229492,-1.80508553981781
1729696943259286300,6.741286376953125,5.793622016906738,-12.370294570922852,-1.2424731254577637
1729696943269055500,6.751055419921875,2.9398818016052246,-12.83480167388916,-0.8042874932289124
1729696943278824700,6.76082470703125,1.3956137895584106,-13.265809059143066,-0.5315057039260864
1729696943288594000,6.770593994140625,0.014356935396790504,-13.943276405334473,-0.13878370821475983
1729696943298363100,6.780363037109375,-1.55623197555542,-14.417354583740234,0.02632104977965355
1729696943308132400,6.79013232421875,-3.129213809967041,-14.656637191772461,0.701396107673645
1729696943317901600,6.799901611328125,-4.319045066833496,-15.32931900024414,1.5418751239776611
1729696943327670800,6.8096708984375,-5.1065826416015625,-15.585650444030762,2.5016961097717285
1729696943337440300,6.819440185546875,-5.587839126586914,-14.996716499328613,2.6862425804138184
1729696943347209500,6.82920947265625,-5.645267009735107,-13.995918273925781,2.451446771621704
1729696943356978700,6.838978759765625,-5.080261707305908,-12.899407386779785,2.0518453121185303
1729696943366748000,6.848747802734375,-4.122534275054932,-12.219547271728516,1.6998014450073242
1729696943376517000,6.85851708984375,-3.253640651702881,-11.841181755065918,1.5825530290603638
1729696943386286300,6.868286376953125,-1.7165511846542358,-11.616256713867188,1.4222339391708374
1729696943396055800,6.878055908203125,0.1866401731967926,-11.09192943572998,1.800299882888794
1729696943405825000,6.887824951171875,1.6423736810684204,-10.311270713806152,1.8218353986740112
1729696943415594200,6.89759423828125,2.3365912437438965,-9.669695854187012,1.8218353986740112
1729696943425363500,6.907363525390625,2.094916343688965,-8.9850492477417,1.8696918487548828
1729696943435132700,6.917132568359375,1.2687941789627075,-8.446364402770996,1.800299882888794
1729696943444902000,6.92690185546875,0.08853443711996078,-7.945965766906738,1.89840567111969
1729696943454671000,6.936671142578125,-1.2185449600219727,-7.502994537353516,1.9776679277420044
1729696943464440300,6.9464404296875,-1.5131611824035645,-7.06271505355835,2.025524377822876
1729696943474209800,6.956209716796875,-1.3764712810516357,-6.74656343460083,2.231307029724121
1729696943483979000,6.96597900390625,-1.2999008893966675,-6.363412857055664,1.8146568536758423
1729696943493748200,6.975748291015625,-1.0845468044281006,-6.061916828155518,1.0582258701324463
1729696943503517400,6.985517333984375,-0.8955138921737671,-6.1241302490234375,0.2225325107574463
1729696943513286700,6.99528662109375,-1.0031908750534058,-6.28205680847168,-0.47647079825401306
1729696943523055900,7.005055908203125,-1.225723385810852,-6.334698677062988,-0.7277171611785889
1729696943532825000,7.0148251953125,-1.3836497068405151,-6.377769470214844,-0.5171487927436829
1729696943542594600,7.024594482421875,-1.3836497068405151,-6.236593246459961,-0.15074782073497772
1729696943552363800,7.03436376953125,-1.252044439315796,-6.066702842712402,0.40229329466819763
1729696943562133000,7.044133056640625,-1.2352946996688843,-5.932704448699951,1.0510473251342773
1729696943571902200,7.053902099609375,-1.1467602252960205,-5.36769962310791,1.3334003686904907
1729696943581671400,7.06367138671875,-1.0103694200515747,-4.860121726989746,1.3645070791244507
1729696943591440600,7.073440673828125,-0.8114659786224365,-4.419543266296387,1.1754741668701172
1729696943601209900,7.0832099609375,-0.643968403339386,-4.2209391593933105,1.1228320598602295
1729696943610979000,7.09297900390625,-0.36640095710754395,-4.261617183685303,1.1635099649429321
1729696943620748500,7.10274853515625,0.016749758273363113,-4.644468784332275,1.074975609779358
1729696943630517800,7.112517822265625,0.7540382146835327,-5.645267009735107,1.1132607460021973
1729696943640287000,7.122286865234375,2.7197420597076416,-7.06271505355835,0.8835497498512268
1729696943650056200,7.13205615234375,5.037190914154053,-9.253045082092285,-0.08374879509210587
1729696943659825400,7.141825439453125,9.176474571228027,-12.485150337219238,-1.8242281675338745
1729696943669594600,7.1515947265625,17.551055908203125,-16.65105438232422,-6.612565517425537
1729696943679363800,7.16136376953125,16.63430404663086,-19.200607299804688,-9.71515941619873
1729696943689133300,7.17113330078125,12.760623931884766,-19.43301010131836,-8.556434631347656
1729696943698902500,7.180902587890625,10.098309516906738,-17.330915451049805,-7.160820960998535
1729696943708671700,7.190671630859375,8.877371788024902,-14.16820240020752,-5.889334678649902
1729696943718441000,7.20044091796875,7.127321243286133,-11.644970893859863,-4.153641223907471
1729696943728210200,7.210210205078125,4.261617183685303,-9.842277526855469,-3.1722846031188965
1729696943737979400,7.2199794921875,2.2025933265686035,-7.965108394622803,-3.492922782897949
1729696943747748600,7.22974853515625,0.5458626747131348,-6.495316982269287,-3.6029927730560303
1729696943757517800,7.239517822265625,-0.47168517112731934,-5.07308292388916,-3.3206396102905273
1729696943767287300,7.249287353515625,-0.612861692905426,-4.179962158203125,-2.612065076828003
1729696943777056500,7.259056396484375,0.0023928226437419653,-4.812265396118164,-1.659123420715332
1729696943786825700,7.26882568359375,0.2994019389152527,-7.275676250457764,-1.0342975854873657
1729696943796595000,7.278594970703125,-0.7205387353897095,-11.302497863769531,-0.8787640929222107
1729696943806364200,7.2883642578125,-2.1547367572784424,-16.579269409179688,-1.3453645706176758
1729696943816133400,7.29813330078125,12.310474395751953,-23.248964309692383,-5.8944196701049805
1729696943825902600,7.307902587890625,5.358128070831299,-26.146074295043945,-5.302793979644775
1729696943835672000,7.317672119140625,7.898109436035156,-20.694625854492188,-3.8688950538635254
1729696943845441300,7.327441162109375,7.881359577178955,-13.17697525024414,2.793919563293457
1729696943855210500,7.33721044921875,2.11405873298645,-7.83111047744751,7.115357398986816
1729696943864979700,7.346979736328125,-3.667897939682007,-4.946263313293457,6.6006011962890625
1729696943874749000,7.3567490234375,-4.254438877105713,-4.443471431732178,8.264510154724121
1729696943884518100,7.36651806640625,-2.2983062267303467,-4.096213340759277,8.365009307861328
1729696943894287400,7.376287353515625,-3.119642496109009,-5.365306377410889,7.3043904304504395
1729696943904056600,7.386056640625,-4.402793884277344,-7.364210605621338,5.171188831329346
1729696943913826000,7.395825927734375,-4.622933387756348,-9.296415328979492,3.7444684505462646
1729696943923595300,7.40559521484375,-4.457828521728516,-11.068000793457031,2.856132984161377
1729696943933364500,7.415364501953125,-4.338187217712402,-11.060822486877441,2.2743778228759766
1729696943943133700,7.4251337890625,-4.409972190856934,-9.940383911132812,2.11405873298645
1729696943952903000,7.43490283203125,-4.41475772857666,-9.430413246154785,2.533101797103882
1729696943962672000,7.444672119140625,-3.9957146644592285,-9.48066234588623,3.1316065788269043
1729696943972441300,7.45444140625,-3.531208038330078,-9.38734245300293,3.0957143306732178
1729696943982210800,7.4642109375,-0.3807578980922699,-8.051250457763672,-2.7412774562835693
1729696943991980000,7.47397998046875,-3.5359935760498047,-10.581958770751953,2.317448616027832
1729696944001749200,7.483749267578125,-3.215355396270752,-9.847063064575195,0.768395185470581
1729696944011518500,7.4935185546875,-3.1579277515411377,-10.17727279663086,0.24406790733337402
1729696944021287700,7.50328759765625,-3.3302109241485596,-11.089536666870117,0.035892341285943985
1729696944031057000,7.513056884765625,-3.5096726417541504,-11.86032485961914,-0.11724831163883209
1729696944040826000,7.522826171875,-3.445066452026367,-12.133405685424805,-0.37118661403656006
1729696944050595300,7.53259521484375,-3.045166015625,-12.035000801086426,-0.7061817646026611
1729696944060364800,7.54236474609375,-2.5307090282440186,-11.700005531311035,-1.158724308013916
1729696944070134000,7.552134033203125,-2.169093608856201,-11.068000793457031,-1.5203397274017334
1729696944079903200,7.5619033203125,-1.8170497417449951,-10.074381828308105,-1.9079769849777222
1729696944089672400,7.57167236328125,-1.5442678928375244,-9.28445053100586,-2.042274236679077
1729696944099441700,7.581441650390625,-1.256830096244812,-8.8438720703125,-2.181057929992676
1729696944109211000,7.5912109375,-1.0893324613571167,-8.740981101989746,-2.1930220127105713
1729696944118980000,7.60097998046875,-0.9122636318206787,-8.245368003845215,-2.540280342102051
1729696944128749600,7.61074951171875,-0.7875377535820007,-8.331509590148926,-2.6790640354156494
1729696944138518800,7.620518798828125,-0.7516453862190247,-8.55164909362793,-3.085843801498413
1729696944148288000,7.6302880859375,-0.7540382146835327,-9.159725189208984,-3.435495138168335
1729696944158057200,7.64005712890625,-0.8018946647644043,-9.875777244567871,-3.5575289726257324
1729696944167826400,7.649826416015625,-0.18903298676013947,-9.930811882019043,-3.6460635662078857
1729696944177595600,7.659595703125,0.9912267923355103,-9.734301567077637,-3.452244758605957
1729696944187364900,7.66936474609375,1.934298038482666,-9.633803367614746,-2.8585257530212402
1729696944197134000,7.679134033203125,2.4610180854797363,-9.533304214477539,-2.389233350753784
1729696944206903300,7.6889033203125,2.841775894165039,-9.485447883605957,-2.063809633255005
1729696944216672800,7.6986728515625,3.0786654949188232,-9.49501895904541,-1.6854444742202759
1729696944226442000,7.70844189453125,3.3062827587127686,-9.521340370178223,-1.3716856241226196
1729696944236211200,7.718211181640625,3.528815269470215,-9.777372360229492,-1.5035899877548218
1729696944245980400,7.72798046875,3.2679975032806396,-10.194023132324219,-1.501197099685669
1729696944255749600,7.73774951171875,2.5016961097717285,-10.351948738098145,-1.6495521068572998
1729696944265518800,7.747518798828125,1.4222339391708374,-10.555638313293457,-1.9127626419067383
1729696944275288000,7.7572880859375,0.3568296730518341,-10.82841968536377,-2.2815563678741455
1729696944285057500,7.7670576171875,-0.39990049600601196,-11.20199966430664,-2.5184457302093506
1729696944294826800,7.77682666015625,-0.8548358678817749,-11.573185920715332,-2.573779821395874
1729696944304596000,7.786595947265625,-0.9074779748916626,-11.264212608337402,-2.465803623199463
1729696944314365200,7.796365234375,-0.610468864440918,-10.794919967651367,-2.0853450298309326
1729696944324134400,7.806134521484375,-0.22971096634864807,-9.796515464782715,-1.6663018465042114
1729696944333903600,7.815903564453125,-0.09571290761232376,-9.104690551757812,-1.4437693357467651
1729696944343672800,7.8256728515625,-0.1866401731967926,-9.006584167480469,-1.678265929222107
1729696944353442000,7.835442138671875,-0.2799602448940277,-9.198010444641113,-1.8792630434036255
1729696944363211500,7.84521142578125,-0.3520440459251404,-9.918848037719727,-2.090130567550659
1729696944372980700,7.854980712890625,-0.6583253145217896,-10.969895362854004,-2.3365912437438965
1729696944382750000,7.86475,-1.1850453615188599,-11.934501647949219,-2.525923490524292
1729696944392519200,7.874519287109375,-1.568196177482605,-12.681660652160645,-2.693420886993408
1729696944402288400,7.884288330078125,-1.7117655277252197,-13.316058158874512,-3.1028928756713867
1729696944412057600,7.8940576171875,-1.4222339391708374,-13.648660659790039,-3.528815269470215
1729696944421826800,7.903826904296875,-0.09571290761232376,-13.36152172088623,-3.380460262298584
1729696944431596000,7.913595947265625,1.8481563329696655,-12.904193878173828,-3.098107099533081
1729696944441365500,7.923365478515625,3.390031576156616,-12.607184410095215,-3.028416156768799
1729696944451134700,7.933134765625,10.534102439880371,-12.640982627868652,-3.873680830001831
1729696944460904000,7.942904052734375,11.075180053710938,-12.937692642211914,-4.658825874328613
1729696944470673200,7.952673095703125,7.65164852142334,-13.450056076049805,-3.7851462364196777
1729696944480442400,7.9624423828125,5.566303730010986,-13.73480224609375,-3.0260233879089355
1729696944490211600,7.972211669921875,3.73250412940979,-13.356736183166504,-2.0518453121185303
1729696944499980800,7.981980712890625,3.08345103263855,-12.760623931884766,-1.3716856241226196
1729696944509750300,7.991750244140625,1.8553348779678345,-12.126227378845215,-1.6375880241394043
1729696944519519500,8.00151953125,0.35443684458732605,-12.648160934448242,-1.4868401288986206
1729696944529288700,8.011288818359375,-0.734895646572113,-13.423734664916992,-1.0103694200515747
1729696944539058000,8.021057861328124,-1.3381860256195068,-13.842778205871582,0.20578274130821228
1729696944548827100,8.0308271484375,-2.035095691680908,-15.056537628173828,1.4533406496047974
1729696944558596400,8.040596435546876,-2.9374887943267822,-16.01905059814453,2.691028118133545
1729696944568365600,8.050365478515625,-3.468994617462158,-17.201702117919922,3.8856449127197266
1729696944578134800,8.060134765625,-3.85693097114563,-17.814563751220703,4.656432628631592
1729696944587904300,8.069904296875,-3.9502511024475098,-16.569698333740234,4.666004180908203
1729696944597673500,8.079673583984375,-3.3134610652923584,-13.806885719299316,3.828217029571533
1729696944607442700,8.089442626953126,-1.170688509941101,-12.008679389953613,-0.5482555031776428
1729696944617212000,8.0992119140625,-2.3222343921661377,-11.151749610900879,3.294318675994873
1729696944626981000,8.108981201171876,-2.1164517402648926,-10.617851257324219,3.054737091064453
1729696944636750300,8.118750244140625,-1.843370795249939,-9.786943435668945,2.911167860031128
1729696944646519600,8.12851953125,-1.568196177482605,-8.94676399230957,2.465803623199463
1729696944656289000,8.1382890625,-2.1260228157043457,-8.09671401977539,1.7596219778060913
1729696944666058200,8.148058349609375,-2.8896324634552,-7.816753387451172,1.1443674564361572
1729696944675827500,8.157827392578126,-3.411566972732544,-7.63729190826416,0.24885354936122894
1729696944685596700,8.1675966796875,-3.5479576587677,-7.476673603057861,-0.3616153299808502
1729696944695366000,8.177365966796875,-3.3756744861602783,-7.3283185958862305,-1.1922239065170288
1729696944705135000,8.187135009765624,-2.6623141765594482,-6.966702938079834,-1.5035899877548218
1729696944714904300,8.196904296875,-2.0829520225524902,-6.911668300628662,-1.6639090776443481
1729696944724673500,8.206673583984376,-1.8170497417449951,-6.885347366333008,-1.628016710281372
1729696944734443000,8.216443115234375,-1.2831511497497559,-6.954739093780518,-1.1563315391540527
1729696944744212200,8.226212158203126,-1.225723385810852,-6.8997039794921875,-0.19142581522464752
1729696944753981400,8.2359814453125,-1.4629119634628296,-6.7345991134643555,0.6942176818847656
1729696944763750700,8.245750732421875,-1.7548363208770752,-6.488138675689697,1.1611171960830688
1729696944773520000,8.255519775390624,-2.0279171466827393,-6.294020652770996,1.537089467048645
1729696944783289000,8.2652890625,-2.2480568885803223,-6.138487339019775,1.7596219778060913
1729696944793058300,8.275058349609376,-2.324627161026001,-5.886941909790039,1.7548363208770752
1729696944802827800,8.284827880859375,-2.2576282024383545,-5.635695457458496,1.7596219778060913
1729696944812597000,8.294596923828125,-2.3054845333099365,-5.32911491394043,1.8696918487548828
1729696944822366200,8.3043662109375,-2.4059832096099854,-4.817050933837891,2.0997018814086914
1729696944832135400,8.314135498046875,-2.262413740158081,-4.338187217712402,2.118844509124756
1729696944841904600,8.323904541015626,-1.9824535846710205,-3.952643871307373,2.228914260864258
1729696944851673900,8.333673828125,-1.323829174041748,-3.9382870197296143,1.7835501432418823
1729696944861443000,8.343443115234376,-1.7237296104431152,-4.429114818572998,2.8441689014434814
1729696944871212300,8.35321240234375,-0.5769693851470947,-5.413163185119629,2.9159533977508545
1729696944880981500,8.3629814453125,2.4945175647735596,-7.213462829589844,3.349353551864624
1729696944890751000,8.3727509765625,6.6915283203125,-9.770194053649902,2.9566314220428467
1729696944900520200,8.382520263671875,16.586448669433594,-13.081262588500977,0.5315057039260864
1729696944910289400,8.392289306640626,29.744281768798828,-18.08495330810547,-6.461817741394043
1729696944920058600,8.40205859375,18.956539154052734,-22.320249557495117,-7.366603374481201
1729696944929827800,8.411827880859375,10.488638877868652,-21.501306533813477,-6.138487339019775
1729696944939597000,8.42159716796875,6.380162239074707,-18.401105880737305,-5.221437931060791
1729696944949366500,8.431366455078125,5.951847076416016,-14.426925659179688,-5.511268615722656
1729696944959135700,8.4411357421875,4.687539577484131,-12.128620147705078,-3.8545382022857666
1729696944968905000,8.450905029296875,2.5833511352539062,-9.37059211730957,-3.3852458000183105
1729696944978674200,8.460674072265626,1.3142578601837158,-6.574280261993408,-3.9143588542938232
1729696944988443400,8.470443359375,0.7109674215316772,-4.321437835693359,-3.6487553119659424
1729696944998212600,8.480212646484375,0.49322056770324707,-2.6336004734039307,-2.7508487701416016
1729696945007981800,8.48998193359375,0.8282157182693481,-2.3700907230377197,-1.6399807929992676
1729696945017751000,8.4997509765625,0.8428717851638794,-4.927121162414551,-0.4812564551830292
1729696945027520300,8.509520263671876,-1.6567305326461792,-9.856635093688965,0.6296114325523376
1729696945037289700,8.519289794921875,-3.5742788314819336,-16.375581741333008,1.2329018115997314
1729696945047059000,8.529058837890625,-1.0271191596984863,-23.22264289855957,-0.9026923179626465
1729696945056828200,8.538828125,5.360520839691162,-26.103002548217773,-4.146462440490723
1729696945066597400,8.548597412109375,10.26341438293457,-22.660030364990234,-4.048357009887695
1729696945076366600,8.55836669921875,7.256533622741699,-17.108083724975586,0.08135596662759781
1729696945086135800,8.5681357421875,-1.201795220375061,-10.847562789916992,3.9622151851654053
1729696945095905300,8.5779052734375,-4.191926002502441,-6.8997039794921875,4.615755081176758
1729696945105674500,8.587674560546875,-5.2645087242126465,-5.092225551605225,5.377270698547363
1729696945115443700,8.597443603515625,-4.3310089111328125,-4.692325115203857,5.379663467407227
1729696945125213000,8.607212890625,-3.4378879070281982,-5.358128070831299,3.8760735988616943
1729696945134982100,8.616982177734375,-2.549851655960083,-7.299604415893555,3.160320520401001
1729696945144751400,8.62675146484375,-2.6168506145477295,-8.369794845581055,2.9231319427490234
1729696945154520600,8.6365205078125,-3.2751760482788086,-9.166903495788574,3.3134610652923584
1729696945164289800,8.646289794921875,-4.201497554779053,-9.59791088104248,3.483351469039917
1729696945174059000,8.65605908203125,-4.852943420410156,-9.918848037719727,3.809074640274048
1729696945183828500,8.665828369140625,-5.015655517578125,-10.000204086303711,4.103391647338867
1729696945193597700,8.67559765625,-4.927121162414551,-10.107880592346191,4.395615100860596
1729696945203367000,8.685366943359375,-4.666004180908203,-9.937990188598633,4.132105827331543
1729696945213136100,8.69513623046875,-3.777967929840088,-9.315557479858398,1.8577276468276978
1729696945222905300,8.7049052734375,-4.453042984008789,-10.239486694335938,4.311866283416748
1729696945232674600,8.714674560546875,-3.890430450439453,-9.286844253540039,3.2440693378448486
1729696945242444000,8.724444091796874,-3.507279872894287,-9.135796546936035,2.7173492908477783
1729696945252213200,8.734213134765625,-3.315854072570801,-9.27727222442627,2.2265214920043945
1729696945261982500,8.743982421875,-3.02123761177063,-9.509376525878906,1.098903775215149
1729696945271751700,8.753751708984375,-2.753241539001465,-9.705587387084961,0.859621524810791
1729696945281521000,8.76352099609375,-2.4873390197753906,-9.813264846801758,0.14356936514377594
1729696945291290000,8.7732900390625,-2.087737798690796,-9.990633010864258,-0.33768710494041443
1729696945301059300,8.783059326171875,-1.7237296104431152,-9.863813400268555,-0.8306085467338562
1729696945310828500,8.79282861328125,-1.4581263065338135,-9.789336204528809,-1.2975081205368042
1729696945320598000,8.802597900390625,-1.2233306169509888,-9.652945518493652,-1.7955143451690674
1729696945330367200,8.8123671875,-1.0630114078521729,-9.566803932189941,-2.2983062267303467
1729696945340136400,8.822136474609374,-0.9074779748916626,-9.624231338500977,-2.2815563678741455
1729696945349905700,8.83190576171875,-0.8620143532752991,-9.50459098815918,-2.4083759784698486
1729696945359675000,8.8416748046875,-0.8428717851638794,-9.471091270446777,-2.417947292327881
1729696945369444000,8.851444091796875,-0.7827520966529846,-9.399306297302246,-2.396411895751953
1729696945379213300,8.86121337890625,-0.7133602499961853,-9.358628273010254,-2.5689942836761475
1729696945388982800,8.870982666015625,-0.5697908997535706,-9.842277526855469,-2.7819554805755615
1729696945398752000,8.880751953125,-0.9098708033561707,-11.058429718017578,-3.3948171138763428
1729696945408521200,8.890521240234374,1.0917253494262695,-11.786147117614746,-4.728217601776123
1729696945418290400,8.90029052734375,3.232105255126953,-12.008679389953613,-5.43709135055542
1729696945428059600,8.9100595703125,4.666004180908203,-12.075977325439453,-5.6309099197387695
1729696945437828900,8.919828857421875,5.621338367462158,-11.288141250610352,-5.36769962310791
1729696945447598000,8.92959814453125,5.50648307800293,-10.486246109008789,-3.976572036743164
1729696945457367300,8.9393671875,3.390031576156616,-9.528518676757812,-3.145963668823242
1729696945467136800,8.94913671875,1.7165511846542358,-9.444769859313965,-2.472982168197632
1729696945476906000,8.958906005859374,0.4980062246322632,-9.325128555297852,-1.8792630434036255
1729696945486675200,8.96867529296875,-0.3640081584453583,-9.308379173278809,-1.7117655277252197
1729696945496444400,8.9784443359375,-0.8763712644577026,-9.375378608703613,-1.8792630434036255
1729696945506213600,8.988213623046875,-1.2640085220336914,-9.569196701049805,-2.0829520225524902
1729696945515982800,8.99798291015625,-1.5418751239776611,-9.763015747070312,-2.221735715866089
1729696945525752000,9.007751953125,-1.6495521068572998,-9.949954986572266,-2.197807550430298
1729696945535521500,9.017521484375,-1.501197099685669,-10.347163200378418,-2.066202402114868
1729696945545290800,9.027290771484376,-1.158724308013916,-10.713563919067383,-1.9728822708129883
1729696945555060000,9.03706005859375,-0.8668000102043152,-10.936097145080566,-1.8337994813919067
1729696945564829200,9.0468291015625,-0.646361231803894,-11.190034866333008,-1.80508553981781
1729696945574598400,9.056598388671874,-0.5458626747131348,-11.434103012084961,-1.8840487003326416
1729696945584367600,9.06636767578125,-0.579362154006958,-11.647363662719727,-2.1308085918426514
1729696945594136800,9.07613671875,-0.7133602499961853,-12.135798454284668,-2.341377019882202
1729696945603906000,9.085906005859375,-0.9912267923355103,-12.461221694946289,-2.513660192489624
1729696945613675500,9.095675537109376,-0.9864411354064941,-12.497114181518555,-2.4562325477600098
1729696945623444700,9.10544482421875,0.45254257321357727,-12.341581344604492,-2.4610180854797363
1729696945633214000,9.1152138671875,2.6575286388397217,-12.348759651184082,-2.30069899559021
1729696945642983200,9.124983154296874,4.4243292808532715,-12.267403602600098,-2.097309112548828
1729696945652752400,9.13475244140625,11.968001365661621,-11.86750316619873,-2.944667339324951
1729696945662521600,9.144521484375,13.679766654968262,-11.400603294372559,-4.453042984008789
1729696945672290800,9.154290771484375,7.208677291870117,-11.477173805236816,-3.7899320125579834
1729696945682060300,9.164060302734375,2.5546371936798096,-12.044571876525879,-2.674278497695923
1729696945691829500,9.17382958984375,0.385543555021286,-11.7358980178833,-1.1228320598602295
1729696945701598700,9.1835986328125,-0.21296121180057526,-11.3718900680542,-1.3716856241226196
1729696945711368000,9.193367919921876,0.6774678826332092,-11.800503730773926,-2.880061149597168
1729696945721137200,9.20313720703125,1.3357932567596436,-13.313665390014648,-4.359723091125488
1729696945730906400,9.21290625,1.0031908750534058,-14.383854866027832,-4.062713623046875
1729696945740675600,9.222675537109374,0.5003990530967712,-14.905789375305176,-2.3988046646118164
1729696945750444800,9.23244482421875,-0.7133602499961853,-15.50668716430664,-1.0342975854873657
1729696945760214300,9.24221435546875,-2.1475582122802734,-16.028621673583984,0.2584248483181
1729696945769983500,9.2519833984375,-3.3278181552886963,-16.698911666870117,1.6399807929992676
1729696945779752700,9.261752685546876,-4.2209391593933105,-17.120346069335938,2.817847728729248
1729696945789522000,9.27152197265625,-4.517649173736572,-16.85444450378418,3.6293137073516846
1729696945799291100,9.281291015625,-4.4961137771606445,-15.137893676757812,3.4546377658843994
1729696945809060400,9.291060302734374,-4.16799783706665,-12.822837829589844,2.496910333633423
1729696945818829800,9.300829833984375,-3.617349624633789,-11.534900665283203,1.5394822359085083
1729696945828599000,9.31059912109375,-3.3373894691467285,-11.35513973236084,2.14516544342041
1729696945838368300,9.3203681640625,-2.6575286388397217,-10.873883247375488,2.4131617546081543
1729696945848137500,9.330137451171876,-1.9175482988357544,-10.098309516906738,2.1308085918426514
1729696945857906700,9.33990673828125,-1.683051586151123,-9.150154113769531,1.7548363208770752
1729696945867676000,9.349676025390625,-1.8864415884017944,-8.365009307861328,1.3980066776275635
1729696945877445000,9.359445068359374,-2.482553482055664,-8.044071197509766,1.170688509941101
1729696945887214300,9.36921435546875,-2.825026273727417,-7.833503246307373,0.6511468887329102
1729696945896983600,9.378983642578126,-2.5785655975341797,-7.622934818267822,0.20817556977272034
1729696945906753000,9.3887529296875,-2.3222343921661377,-7.151249408721924,-0.16271193325519562
1729696945916522200,9.398522216796875,-2.0398812294006348,-6.591030120849609,-0.33768710494041443
1729696945926291500,9.40829150390625,-2.1858434677124023,-6.171987056732178,-0.5051847100257874
1729696945936060700,9.418060791015625,-2.3748764991760254,-5.9901323318481445,-0.8066803216934204
1729696945945830000,9.427829833984376,-2.26959228515625,-6.093023777008057,-0.9505487680435181
1729696945955599000,9.43759912109375,-2.011167526245117,-6.16480827331543,-0.7612167000770569
1729696945965368600,9.44736865234375,-2.035095691680908,-6.073881149291992,-0.09810572862625122
1729696945975137800,9.4571376953125,-2.1475582122802734,-5.992525100708008,0.7157530784606934
1729696945984907000,9.466906982421875,-2.0781664848327637,-5.961418628692627,1.4629119634628296
1729696945994676200,9.47667626953125,-1.7404793500900269,-5.973382472991943,1.831406593322754
1729696946004445400,9.486445556640625,-1.596909999847412,-5.877370834350586,1.9728822708129883
1729696946014214700,9.496214599609376,-1.5873386859893799,-5.702694416046143,2.1379871368408203
1729696946023983900,9.50598388671875,-1.6926229000091553,-5.475376605987549,2.307877540588379
1729696946033753000,9.515753173828125,-1.7261223793029785,-5.180759906768799,2.533101797103882
1729696946043522600,9.5255224609375,-1.3525429964065552,-4.888835906982422,2.566601276397705
1729696946053291800,9.535291748046875,-0.9577272534370422,-4.888835906982422,2.784348249435425
1729696946063061000,9.54506103515625,-0.6152545213699341,-5.087440013885498,2.707777976989746
1729696946072830200,9.554830322265625,0.2560320198535919,-5.62373161315918,2.5929224491119385
1729696946082599400,9.564599365234375,2.396411895751953,-6.902096748352051,2.4562325477600098
1729696946092368600,9.57436865234375,5.027619361877441,-8.72901725769043,1.6112669706344604
1729696946102137900,9.584137939453125,9.114261627197266,-10.99860954284668,-0.2874378263950348
1729696946111907300,9.5939072265625,16.6534481048584,-14.16580867767334,-3.684647798538208
1729696946121676500,9.603676513671875,16.4880428314209,-17.694923400878906,-8.173583030700684
1729696946131445800,9.61344580078125,11.924930572509766,-19.428224563598633,-9.358628273010254
1729696946141215000,9.623215087890625,7.184749126434326,-18.65474510192871,-9.190832138061523
1729696946150984200,9.632984130859375,6.428019046783447,-15.839289665222168,-9.76062297821045
1729696946160753400,9.64275341796875,7.182356357574463,-14.498710632324219,-7.036394119262695
1729696946170522600,9.652522705078125,4.9414777755737305,-12.243474960327148,-4.6372904777526855
1729696946180291800,9.662291748046876,3.2273194789886475,-8.879764556884766,-4.711467742919922
1729696946190061300,9.672061279296875,1.800299882888794,-7.127321243286133,-4.374079704284668
1729696946199830500,9.68183056640625,0.6702894568443298,-6.08823823928833,-3.9239299297332764
1729696946209599700,9.691599853515624,0.3735794425010681,-5.556732177734375,-3.10528564453125
1729696946219369000,9.701368896484375,0.7923234105110168,-6.612565517425537,-1.6686947345733643
1729696946229138200,9.71113818359375,1.0319048166275024,-9.542876243591309,-0.49322056770324707
1729696946238907400,9.720907470703125,1.0223335027694702,-13.466805458068848,-0.4549354016780853
1729696946248676600,9.730676513671876,4.728217601776123,-18.422639846801758,-2.669492721557617
1729696946258445800,9.74044580078125,1.807478427886963,-21.776779174804688,-4.189533233642578
1729696946268215300,9.75021533203125,-1.750050663948059,-18.992431640625,-3.054737091064453
1729696946277984500,9.759984619140624,-0.02632104977965355,-15.341282844543457,-0.007178467698395252
1729696946287753700,9.769753662109375,0.4334000051021576,-11.082358360290527,2.9015965461730957
1729696946297523000,9.77952294921875,-2.6503500938415527,-6.86381196975708,3.10528564453125
1729696946307292200,9.789292236328125,-2.7580273151397705,-5.358128070831299,3.684647798538208
1729696946317061400,9.799061279296875,-2.3030917644500732,-5.2645087242126465,4.781158924102783
1729696946326830600,9.80883056640625,-1.8385851383209229,-5.932704448699951,5.432305812835693
1729696946336600000,9.81860009765625,-2.6264219284057617,-7.306783199310303,5.116153717041016
1729696946346369300,9.828369384765624,-2.293520450592041,-8.934800148010254,4.713860511779785
1729696946356138500,9.838138427734375,-1.77397882938385,-11.469995498657227,3.895216226577759
1729696946365907700,9.84790771484375,-1.378864049911499,-11.877074241638184,3.085843801498413
1729696946375677000,9.857677001953125,-1.8888343572616577,-10.957931518554688,3.1866414546966553
1729696946385446100,9.867446044921875,-3.0714869499206543,-10.28016471862793,4.206283092498779
1729696946395215400,9.87721533203125,-4.206283092498779,-9.583553314208984,4.249652862548828
1729696946404984600,9.886984619140625,-4.431507587432861,-9.320343017578125,3.9023945331573486
1729696946414754000,9.896754150390626,-4.096213340759277,-9.260522842407227,3.57906436920166
1729696946424523300,9.906523193359375,-3.780360698699951,-8.796015739440918,1.5634105205535889
1729696946434292500,9.91629248046875,-3.586242914199829,-8.601898193359375,2.7580273151397705
1729696946444061700,9.926061767578124,-2.434697151184082,-7.9244303703308105,-0.9337990283966064
1729696946453831000,9.935830810546875,-3.562314748764038,-9.418449401855469,2.762812852859497
1729696946463600000,9.94560009765625,-3.318246841430664,-9.272486686706543,2.4705893993377686
1729696946473369600,9.95536962890625,-3.0643084049224854,-9.447162628173828,2.104487419128418
1729696946483138800,9.965138916015626,-2.731706142425537,-9.89970588684082,1.410269856452942
1729696946492908000,9.974907958984375,-2.39401912689209,-10.012167930603027,-0.11964113265275955
1729696946502677200,9.98467724609375,-2.4155545234680176,-11.048858642578125,0.09571290761232376
1729696946512446500,9.994446533203124,-2.420340061187744,-10.845169067382812,-0.4980062246322632
1729696946522215700,10.004215576171875,-2.2719850540161133,-10.414461135864258,-0.9864411354064941
1729696946531985000,10.01398486328125,-1.9319051504135132,-10.17009449005127,-1.6998014450073242
1729696946541754000,10.023754150390625,-1.6663018465042114,-9.983454704284668,-2.1954147815704346
1729696946551523300,10.0335234375,-1.4892330169677734,-9.681659698486328,-2.691028118133545
1729696946561292800,10.043292724609374,-1.3597214221954346,-9.727123260498047,-2.777169704437256
1729696946571062000,10.05306201171875,-1.189831018447876,-9.741479873657227,-2.856132984161377
1729696946580831200,10.062831298828126,-1.1635099649429321,-9.640981674194336,-2.863311290740967
1729696946590600400,10.072600341796875,-1.1371889114379883,-9.648159980773926,-2.7891337871551514
1729696946600369700,10.08236962890625,-1.0510473251342773,-9.655338287353516,-3.145963668823242
1729696946610139000,10.092138916015625,-0.9194421172142029,-9.918848037719727,-3.5982069969177246
1729696946619908400,10.101908447265625,-1.0103694200515747,-10.337592124938965,-3.8138601779937744
1729696946629677600,10.111677490234374,-0.766002357006073,-10.44078254699707,-3.739682674407959
1729696946639446800,10.12144677734375,0.40707895159721375,-10.54845905303955,-3.5192439556121826
1729696946649216000,10.131216064453126,2.30069899559021,-10.809277534484863,-3.3230323791503906
1729696946658985200,10.140985107421875,4.022035598754883,-11.08475112915039,-3.2129626274108887
1729696946668754400,10.15075439453125,5.039583683013916,-11.316854476928711,-3.1866414546966553
1729696946678523600,10.160523681640624,5.6859450340271,-11.175678253173828,-2.777169704437256
1729696946688292900,10.17029296875,5.935097694396973,-10.56520938873291,-2.14516544342041
1729696946698062300,10.180062255859376,4.206283092498779,-10.244272232055664,-1.89840567111969
1729696946707831600,10.18983154296875,3.153141975402832,-10.356734275817871,-2.018345832824707
1729696946717600800,10.199600830078126,2.4370899200439453,-10.445568084716797,-2.1236300468444824
1729696946727370000,10.209369873046874,1.6926229000091553,-10.28734302520752,-2.0063817501068115
1729696946737139200,10.21913916015625,0.9361918568611145,-10.227521896362305,-1.9438693523406982
1729696946746908400,10.228908447265624,0.2727817893028259,-10.213165283203125,-1.958226203918457
1729696946756677600,10.238677734375,-0.059820566326379776,-10.079167366027832,-1.9247267246246338
1729696946766447000,10.248447021484376,-0.20578274130821228,-10.246665000915527,-1.958226203918457
1729696946776216300,10.25821630859375,-0.41186460852622986,-11.017751693725586,-2.286342144012451
1729696946785985500,10.267985595703125,-0.7253243923187256,-11.759825706481934,-2.5833511352539062
1729696946795754800,10.277754638671874,-1.1060823202133179,-12.485150337219238,-2.9925239086151123
1729696946805524000,10.28752392578125,-1.4940186738967896,-12.997513771057129,-3.1962127685546875
1729696946815293200,10.297293212890626,-1.5275181531906128,-12.98076343536377,-3.119642496109009
1729696946825062400,10.3070625,-0.8042874932289124,-12.542577743530273,-3.2967114448547363
1729696946834831600,10.31683154296875,0.7947162389755249,-12.27697467803955,-3.7827534675598145
1729696946844601000,10.32660107421875,2.683849811553955,-12.497114181518555,-3.8449668884277344
1729696946854370300,10.336370361328125,4.242474555969238,-12.410972595214844,-3.9311084747314453
1729696946864139500,10.346139404296874,7.991429328918457,-12.181262016296387,-4.694717884063721
1729696946873908700,10.35590869140625,12.444472312927246,-11.987144470214844,-5.492125988006592
1729696946883678000,10.365677978515626,8.408080101013184,-11.884252548217773,-4.632504463195801
1729696946893447200,10.375447265625,3.9095730781555176,-12.1597261428833,-3.7277185916900635
1729696946903216600,10.385216552734375,2.3294129371643066,-13.466805458068848,-3.2344980239868164
1729696946912985900,10.39498583984375,1.623231053352356,-14.132309913635254,-2.777169704437256
1729696946922755000,10.404755126953125,0.23210379481315613,-14.81695556640625,-2.7508487701416016
1729696946932524300,10.414524169921876,-1.7404793500900269,-15.781861305236816,-2.0231316089630127
1729696946942293500,10.42429345703125,-3.2201411724090576,-16.569698333740234,-1.2041879892349243
1729696946952062700,10.434062744140626,-3.952643871307373,-17.038692474365234,-0.06699903309345245
1729696946961832000,10.44383203125,-4.610969066619873,-18.36521339416504,1.6758731603622437
1729696946971601200,10.45360107421875,-4.754538536071777,-18.211772918701172,3.562314748764038
1729696946981370600,10.46337060546875,-4.46979284286499,-17.606090545654297,4.151247978210449
1729696946991139800,10.473139892578125,-4.48414945602417,-16.454544067382812,4.115355968475342
1729696947000909000,10.482908935546876,-3.9574296474456787,-14.048561096191406,3.11246395111084
1729696947010678300,10.49267822265625,-3.246462106704712,-11.45563793182373,1.714158296585083
1729696947020447500,10.502447509765625,-2.8034908771514893,-9.952347755432129,1.0917253494262695
1729696947030216700,10.512216796875,-2.5833511352539062,-9.420842170715332,1.3716856241226196
1729696947039986000,10.52198583984375,-2.5450658798217773,-8.54447078704834,1.7548363208770752
1729696947049755400,10.53175537109375,-1.8816559314727783,-7.606184959411621,2.066202402114868
1729696947059524600,10.541524658203125,-1.4198411703109741,-7.012166976928711,1.9366908073425293
1729696947069293800,10.5512939453125,-1.40279221534729,-6.835097789764404,1.903191328048706
1729696947079063000,10.56106298828125,-2.1332013607025146,-6.646064758300781,1.994417667388916
1729696947088832300,10.570832275390625,-3.667897939682007,-6.483353137969971,1.872084617614746
1729696947098601500,10.5806015625,-4.833800792694092,-6.449554443359375,1.079761266708374
1729696947108370700,10.59037060546875,-5.180759906768799,-6.480959892272949,0.701396107673645
1729696947118140200,10.60014013671875,-5.305186748504639,-6.361020088195801,0.8353942036628723
1729696947127909400,10.609909423828125,-5.2477593421936035,-6.023632049560547,0.8787640929222107
1729696947137678600,10.6196787109375,-4.919942378997803,-5.793622016906738,0.4812564551830292
1729696947147447800,10.62944775390625,-3.4785659313201904,-5.757729530334473,-0.8090731501579285
1729696947157217000,10.639217041015625,-2.5522444248199463,-6.08823823928833,-1.2903295755386353
1729696947166986200,10.648986328125,-1.750050663948059,-6.109773635864258,-1.134796142578125
1729696947176755500,10.65875537109375,-1.415055513381958,-6.315556049346924,-0.37836506962776184
1729696947186525000,10.66852490234375,-1.3381860256195068,-6.461817741394043,1.1395817995071411
1729696947196294100,10.678294189453124,-0.893121063709259,-6.186343669891357,2.338984251022339
1729696947206063400,10.6880634765625,-0.643968403339386,-5.7720866203308105,3.19860577583313
1729696947215832600,10.69783251953125,-0.2994019389152527,-5.353342533111572,3.500101327896118
1729696947225601800,10.707601806640625,0.04785645380616188,-5.365306377410889,3.617349624633789
1729696947235371000,10.71737109375,0.7444669604301453,-5.949454307556152,3.004487991333008
1729696947245140200,10.72714013671875,1.0893324613571167,-6.8279194831848145,3.4642090797424316
1729696947254909400,10.736909423828125,2.441875457763672,-7.572386264801025,3.0571300983428955
1729696947264679000,10.746678955078124,4.759324073791504,-9.550054550170898,2.856132984161377
1729696947274448100,10.7564482421875,9.384949684143066,-11.786147117614746,1.6256239414215088
1729696947284217300,10.76621728515625,14.563316345214844,-14.05813217163086,-2.5450658798217773
1729696947293986600,10.775986572265625,11.78853988647461,-16.263118743896484,-6.832705020904541
1729696947303755800,10.785755859375,10.100702285766602,-17.23280906677246,-9.044869422912598
1729696947313525000,10.79552490234375,7.4479594230651855,-17.273487091064453,-9.411270141601562
1729696947323294500,10.80529443359375,4.721039295196533,-15.451652526855469,-7.800003528594971
1729696947333063700,10.815063720703124,5.645267009735107,-11.819646835327148,-7.292426109313965
1729696947342833000,10.8248330078125,5.920740604400635,-9.803693771362305,-5.492125988006592
1729696947352602000,10.83460205078125,4.2592244148254395,-7.974679470062256,-5.185545921325684
1729696947362371300,10.844371337890625,2.4083759784698486,-6.423233509063721,-5.049154758453369
1729696947372140500,10.854140625,0.6583253145217896,-5.4418768882751465,-4.223331928253174
1729696947381909800,10.86390966796875,-0.4860421121120453,-4.946263313293457,-3.2129626274108887
1729696947391679000,10.873678955078125,-1.048654556274414,-5.518447399139404,-1.9319051504135132
1729696947401448400,10.883448486328126,-1.7787644863128662,-7.71386194229126,-0.43579283356666565
1729696947411217700,10.8932177734375,-2.698206663131714,-10.926525115966797,0.6152545213699341
1729696947420987000,10.90298681640625,-3.1100711822509766,-15.688541412353516,0.28504499793052673
1729696947430756000,10.912756103515624,1.3668999671936035,-21.5659122467041,-0.924227774143219
1729696947440525300,10.922525390625,9.949954986572266,-25.147668838500977,-2.444268226623535
1729696947450294500,10.93229443359375,7.294818878173828,-22.31546401977539,2.3772692680358887
1729696947460063700,10.942063720703125,2.386840581893921,-14.912967681884766,6.054738521575928
1729696947469833000,10.9518330078125,-2.9255247116088867,-9.20997428894043,5.947061538696289
1729696947479602400,10.9616025390625,-3.85693097114563,-7.40488862991333,5.9901323318481445
1729696947489371600,10.97137158203125,-3.91914439201355,-6.315556049346924,5.621338367462158
1729696947499140900,10.981140869140624,-3.4498519897460938,-6.574280261993408,4.651647090911865
1729696947508910000,10.99091015625,-3.1100711822509766,-7.294818878173828,4.007678985595703
1729696947518679300,11.00067919921875,-3.169891834259033,-8.298009872436523,3.600599765777588
1729696947528448500,11.010448486328125,-3.5048868656158447,-9.796515464782715,3.356531858444214
1729696947538218000,11.020218017578125,-4.208974838256836,-9.655338287353516,2.9709885120391846
1729696947547987200,11.0299873046875,-4.821836948394775,-9.047262191772461,2.6718854904174805
1729696947557756400,11.03975634765625,-5.274080276489258,-8.791230201721191,3.145963668823242
1729696947567525600,11.049525634765626,-4.852943420410156,-8.884550094604492,3.70139741897583
1729696947577294800,11.059294921875,-3.9885363578796387,-8.886942863464355,3.6583266258239746
1729696947587064000,11.06906396484375,-3.0786654949188232,-8.760123252868652,3.4259238243103027
1729696947596833300,11.078833251953125,-2.5184457302093506,-9.011369705200195,3.2440693378448486
1729696947606602500,11.0886025390625,-2.1619153022766113,-9.310771942138672,3.004487991333008
1729696947616371700,11.098371826171874,-2.183450698852539,-9.418449401855469,2.482553482055664
1729696947626141200,11.10814111328125,-2.2719850540161133,-9.710372924804688,2.0685951709747314
1729696947635910400,11.117910400390626,-2.441875457763672,-10.349555969238281,1.474876046180725
1729696947645679600,11.1276796875,-2.5929224491119385,-10.83559799194336,0.859621524810791
1729696947655448800,11.13744873046875,-2.588136672973633,-11.182856559753418,0.2392822653055191
1729696947665218000,11.147218017578124,-2.4370899200439453,-11.087143898010254,-0.1746760457754135
1729696947674987300,11.1569873046875,-2.090130567550659,-10.787741661071777,-0.5745765566825867
1729696947684756700,11.1667568359375,-1.7979071140289307,-10.531709671020508,-1.0510473251342773
1729696947694526000,11.17652587890625,-1.678265929222107,-10.625029563903809,-1.8337994813919067
1729696947704295200,11.186295166015626,-1.6328023672103882,-10.158130645751953,-2.152343988418579
1729696947714064400,11.196064453125,-1.6447664499282837,-9.205188751220703,-3.1339993476867676
1729696947723833600,11.20583349609375,-1.292722463607788,-8.989834785461426,-2.8848466873168945
1729696947733602800,11.215602783203124,-1.1108678579330444,-8.772088050842285,-2.9566314220428467
1729696947743372000,11.2253720703125,-1.1419745683670044,-8.621041297912598,-2.8465616703033447
1729696947753141200,11.235141357421876,-0.9314061999320984,-9.07119083404541,-2.784348249435425
1729696947762910700,11.24491064453125,-0.7731808423995972,-9.691230773925781,-2.98295259475708
1729696947772680000,11.254679931640625,-0.6702894568443298,-10.062417030334473,-3.2297122478485107
1729696947782449200,11.26444921875,-0.5841478109359741,-10.339984893798828,-3.4857444763183594
1729696947792218400,11.27421826171875,-0.6200401782989502,-10.431211471557617,-3.4857444763183594
1729696947801987600,11.283987548828126,-0.4668995141983032,-10.368699073791504,-3.339782238006592
1729696947811756800,11.2937568359375,-0.07657032459974289,-10.625029563903809,-3.287140130996704
1729696947821526300,11.3035263671875,0.8739784955978394,-10.845169067382812,-3.0332016944885254
1729696947831295500,11.31329541015625,1.7428722381591797,-10.775777816772461,-2.669492721557617
1729696947841064700,11.323064697265625,2.3461625576019287,-10.567602157592773,-2.2959132194519043
1729696947850834000,11.332833984375,2.676671266555786,-10.763813972473145,-2.008774518966675
1729696947860603100,11.34260302734375,2.7652056217193604,-10.869097709655762,-1.721336841583252
1729696947870372400,11.352372314453126,3.342175006866455,-10.670493125915527,-1.6040884256362915
1729696947880141600,11.3621416015625,3.828217029571533,-10.246665000915527,-1.77397882938385
1729696947889910800,11.371910888671875,3.6822550296783447,-9.801301002502441,-2.386840581893921
1729696947899680300,11.38168017578125,3.0020952224731445,-9.863813400268555,-2.9063823223114014
1729696947909449500,11.391449462890625,2.0398812294006348,-10.119845390319824,-3.1411778926849365
1729696947919218700,11.40121875,1.1252248287200928,-10.483853340148926,-2.9949166774749756
1729696947928988000,11.41098779296875,0.4812564551830292,-10.761421203613281,-2.6886353492736816
1729696947938757000,11.420757080078126,-0.02392822690308094,-10.684850692749023,-2.355733871459961
1729696947948526300,11.4305263671875,-0.35922250151634216,-10.359127044677734,-2.025524377822876
1729696947958295800,11.4402958984375,-0.5482555031776428,-10.44796085357666,-2.0470597743988037
1729696947968065000,11.45006494140625,-0.4668995141983032,-10.912168502807617,-2.2911276817321777
1729696947977834200,11.459834228515625,-0.30658039450645447,-11.644970893859863,-2.355733871459961
1729696947987603500,11.469603515625,-0.15074782073497772,-11.798110961914062,-2.449054002761841
1729696947997372700,11.47937255859375,0.27038896083831787,-12.626626014709473,-2.480160713195801
1729696948007142000,11.489141845703125,1.3525429964065552,-12.995121002197266,-3.177070379257202
1729696948016911000,11.4989111328125,3.145963668823242,-13.007084846496582,-4.084249019622803
1729696948026680300,11.508680419921875,5.061119079589844,-13.304094314575195,-4.8792643547058105
1729696948036449800,11.51844970703125,7.019644260406494,-12.995121002197266,-5.520840167999268
1729696948046219000,11.528218994140625,11.47956657409668,-12.475579261779785,-6.634100914001465
1729696948055988200,11.53798828125,12.74866008758545,-12.02064323425293,-7.036394119262695
1729696948065757400,11.54775732421875,5.733801364898682,-12.489935874938965,-5.889334678649902
1729696948075526700,11.557526611328125,2.8992037773132324,-13.277772903442383,-5.468197822570801
1729696948085295900,11.5672958984375,1.6998014450073242,-14.481961250305176,-4.6372904777526855
1729696948095065300,11.5770654296875,-0.08135596662759781,-15.556936264038086,-3.366103172302246
1729696948104834600,11.58683447265625,-1.8385851383209229,-16.258333206176758,-1.3860424757003784
1729696948114603800,11.596603759765625,-3.332603693008423,-16.51436424255371,-0.05742774158716202
1729696948124373000,11.606373046875,-4.060320854187012,-17.242380142211914,0.734895646572113
1729696948134142200,11.61614208984375,-4.2281174659729,-17.58216094970703,1.9606190919876099
1729696948143911400,11.625911376953125,-4.766502857208252,-17.809778213500977,3.2727832794189453
1729696948153680600,11.6356806640625,-4.9654059410095215,-17.42662811279297,3.263211965560913
1729696948163450000,11.6454501953125,-4.891228675842285,-15.966109275817871,2.9638099670410156
1729696948173219300,11.65521923828125,-5.039583683013916,-14.489139556884766,2.0518453121185303
1729696948182988500,11.664988525390624,-4.589433670043945,-12.434901237487793,0.9098708033561707
1729696948192757800,11.6747578125,2.9542386531829834,-11.10628604888916,-6.236593246459961
1729696948202527000,11.68452685546875,-4.1129631996154785,-9.887741088867188,0.7468597888946533
1729696948212296200,11.694296142578125,-3.746861219406128,-8.865407943725586,0.12203395366668701
1729696948222065400,11.7040654296875,1.4796617031097412,-8.084749221801758,-1.9824535846710205
1729696948231835000,11.7138349609375,-3.442673683166504,-7.550850868225098,0.3927220106124878
1729696948241604000,11.72360400390625,-3.6583266258239746,-6.882954120635986,0.10767702013254166
1729696948251373300,11.733373291015624,-3.82582426071167,-6.619743824005127,-0.4262215197086334
1729696948261142500,11.743142578125,-3.4019956588745117,-6.722635269165039,-0.2560320198535919
1729696948270911700,11.752911865234376,-2.832204818725586,-6.571887493133545,0.35443684458732605
1729696948280681000,11.762680908203125,-2.204986095428467,-6.370591163635254,0.5386841893196106
1729696948290450200,11.7724501953125,-0.890728235244751,-6.3442702293396,0.4214358925819397
1729696948300219600,11.7822197265625,-0.6990033388137817,-6.638886451721191,0.579362154006958
1729696948309988900,11.79198876953125,-0.9888339638710022,-6.859025955200195,0.8377870321273804
1729696948319758000,11.801758056640624,-1.2448660135269165,-6.973881721496582,1.3070793151855469
1729696948329527300,11.81152734375,-1.410269856452942,-6.866204738616943,1.8385851383209229
1729696948339296500,11.821296630859376,-1.4557334184646606,-6.770491600036621,2.5307090282440186
1729696948349065700,11.831065673828125,-1.4676976203918457,-6.533602237701416,2.9805595874786377
1729696948358835000,11.8408349609375,-1.3310075998306274,-6.394519329071045,3.3756744861602783
1729696948368604200,11.850604248046874,-1.1324033737182617,-6.073881149291992,3.5336008071899414
1729696948378373600,11.86037353515625,-0.48843491077423096,-5.714658737182617,0.8835497498512268
1729696948388142800,11.870142822265626,-0.8114659786224365,-5.221437931060791,4.0196428298950195
1729696948397912000,11.879912109375,0.08853443711996078,-4.860121726989746,3.6966118812561035
1729696948407681300,11.889681396484375,0.49322056770324707,-4.742574691772461,4.4721856117248535
1729696948417450500,11.899450439453124,1.2640085220336914,-4.618147850036621,4.5391845703125
1729696948427219700,11.9092197265625,2.1571295261383057,-4.943870544433594,4.438685894012451
1729696948436989200,11.9189892578125,3.1004998683929443,-5.889334678649902,4.120141506195068
1729696948446758400,11.92875830078125,4.66361141204834,-7.34267520904541,3.287140130996704
1729696948456527600,11.938527587890626,7.914859294891357,-9.337093353271484,1.3980066776275635
1729696948466296800,11.948296875,11.051251411437988,-11.474781036376953,-2.135594129562378
1729696948476066000,11.958066162109375,13.5242338180542,-13.90977668762207,-6.696314334869385
1729696948485835300,11.967835205078124,9.707980155944824,-17.00279998779297,-10.68963623046875
1729696948495604500,11.9776044921875,7.172784805297852,-18.822540283203125,-13.0525484085083
1729696948505374000,11.9873740234375,5.676373481750488,-18.063417434692383,-13.359128952026367
1729696948515143200,11.99714306640625,6.238986015319824,-14.963217735290527,-12.40140151977539
1729696948524912400,12.006912353515625,6.042774677276611,-12.69601821899414,-7.433602809906006
1729696948534681600,12.016681640625,4.570291042327881,-9.856635093688965,-4.994120121002197
1729696948544450800,12.026450927734375,3.339782238006592,-7.728219032287598,-4.524827480316162
1729696948554220000,12.036219970703126,2.17627215385437,-6.634100914001465,-4.172783374786377
1729696948563989500,12.045989501953125,1.9103697538375854,-6.619743824005127,-3.73250412940979
1729696948573758700,12.0557587890625,2.1308085918426514,-7.797610759735107,-3.2919256687164307
1729696948583528000,12.06552783203125,2.6240291595458984,-10.234700202941895,-3.07627272605896
1729696948593297200,12.075297119140625,3.452244758605957,-14.172987937927246,-3.3302109241485596
1729696948603066400,12.08506640625,9.626625061035156,-19.397117614746094,-5.063511848449707
1729696948612835600,12.094835693359375,7.395317554473877,-23.689542770385742,-6.476174354553223
1729696948622604800,12.104604736328126,-2.724527597427368,-20.136798858642578,-4.5583271980285645
1729696948632374300,12.114374267578125,-4.292723655700684,-14.857633590698242,-0.5147559642791748
1729696948642143500,12.1241435546875,-2.4873390197753906,-10.763813972473145,2.8896324634552
1729696948651912700,12.13391259765625,-2.580958366394043,-6.143272876739502,3.614956855773926
1729696948661682000,12.143681884765625,-3.466601848602295,-4.256831645965576,4.079463481903076
1729696948671451100,12.153451171875,-3.866502285003662,-4.42193603515625,4.651647090911865
1729696948681220400,12.163220458984375,-3.70139741897583,-5.721837043762207,6.612565517425537
1729696948690989800,12.17298974609375,-3.4067811965942383,-5.982954025268555,6.442375659942627
1729696948700759000,12.182759033203125,-3.64127779006958,-6.954739093780518,6.729813575744629
1729696948710528300,12.1925283203125,-3.4857444763183594,-8.726624488830566,6.928418159484863
1729696948720297500,12.20229736328125,-3.0116662979125977,-11.094322204589844,5.738586902618408
1729696948730066700,12.212066650390625,-2.944667339324951,-12.058928489685059,4.8314080238342285
1729696948739836000,12.2218359375,-3.184248685836792,-11.604292869567871,4.6372904777526855
1729696948749605000,12.231605224609375,-3.442673683166504,-10.330413818359375,5.38205623626709
1729696948759374600,12.24137451171875,-3.4953157901763916,-9.435198783874512,5.307579517364502
1729696948769143800,12.251143798828124,-2.793919563293457,-9.116654396057129,4.872086048126221
1729696948778913000,12.2609130859375,-2.200200319290161,-9.016156196594238,3.959822416305542
1729696948788682200,12.27068212890625,-2.0518453121185303,-10.732707023620605,3.81864595413208
1729696948798451500,12.280451416015625,-2.173879384994507,-9.870991706848145,3.0164520740509033
1729696948808220700,12.290220703125,-2.2337000370025635,-8.69043254852295,2.4849462509155273
1729696948817990000,12.299989990234375,-2.2743778228759766,-8.69043254852295,2.2576282024383545
1729696948827759400,12.30975927734375,-2.0997018814086914,-9.847063064575195,1.721336841583252
1729696948837528600,12.319528564453124,-2.090130567550659,-10.919346809387207,1.1754741668701172
1729696948847297800,12.3292978515625,-2.121237277984619,-11.47238826751709,0.6607181429862976
1729696948857067000,12.33906689453125,-2.0757737159729004,-11.589935302734375,0.035892341285943985
1729696948866836200,12.348836181640625,-1.8792630434036255,-11.331212043762207,-0.5458626747131348
1729696948876605400,12.35860546875,-1.750050663948059,-10.79013442993164,-1.4198411703109741
1729696948886375000,12.368375,-1.501197099685669,-9.868598937988281,-2.9614171981811523
1729696948896144100,12.37814404296875,-1.1300104856491089,-9.981060981750488,-2.7340989112854004
1729696948905913300,12.387913330078124,-0.9098708033561707,-9.48784065246582,-2.968595504760742
1729696948915682600,12.3976826171875,-0.8401798605918884,-9.559625625610352,-3.380460262298584
1729696948925451800,12.40745166015625,-0.9720842242240906,-9.50459098815918,-3.5647075176239014
1729696948935221000,12.417220947265625,-1.225723385810852,-9.763015747070312,-3.5479576587677
1729696948944990200,12.426990234375,-1.2329018115997314,-9.664909362792969,-3.8760735988616943
1729696948954759700,12.436759765625,-0.6152545213699341,-9.39452075958252,-4.316651821136475
1729696948964529000,12.44652880859375,0.05742774158716202,-9.523733139038086,-4.584648132324219
1729696948974298000,12.456298095703126,0.6894320249557495,-9.674481391906738,-4.560719966888428
